"Time (s)","Linear Acceleration x (m/s^2)","Linear Acceleration y (m/s^2)","Linear Acceleration z (m/s^2)","Absolute acceleration (m/s^2)"
2.547999989E-3,7.253294139E-1,1.099973531E0,-2.619911047E0,2.932571980E0
1.254199998E-2,7.880712073E-1,1.212727144E0,-2.342346058E0,2.752880021E0
2.253599997E-2,8.635382961E-1,1.483202384E0,-1.895682517E0,2.557185935E0
3.253000000E-2,8.416509984E-1,1.674079184E0,-1.729944944E0,2.550220976E0
4.252399999E-2,8.433852826E-1,1.726188108E0,-1.565904232E0,2.478523791E0
5.251799998E-2,9.768471028E-1,1.795908261E0,-1.214638599E0,2.377995725E0
6.251199997E-2,1.073419863E0,1.825017454E0,-9.480195987E-1,2.319840527E0
7.250600000E-2,1.131856497E0,1.868373097E0,-1.225188146E0,2.504596405E0
8.249999999E-2,1.065301004E0,1.921194796E0,-1.615276952E0,2.726715113E0
9.249399998E-2,8.793775262E-1,2.057401007E0,-1.773036584E0,2.854796397E0
1.024880000E-1,7.563680425E-1,2.202202040E0,-1.861083373E0,2.980841788E0
1.124820000E-1,7.655449551E-1,2.289591017E0,-2.111400336E0,3.207225823E0
1.224770000E-1,8.055336244E-1,2.231631077E0,-2.160375445E0,3.208782284E0
1.324710000E-1,8.799645866E-1,1.975770953E0,-1.934594568E0,2.901838155E0
1.424650000E-1,9.051834816E-1,2.152048133E0,-1.613281297E0,2.837841582E0
1.524590000E-1,6.696235751E-1,2.604052521E0,-1.300988526E0,2.986981153E0
1.624530000E-1,5.970925194E-1,3.041867178E0,-9.240308118E-1,3.234703749E0
1.724470000E-1,5.719413060E-1,3.382841712E0,-6.949526900E-1,3.500527695E0
1.824410000E-1,5.907721178E-1,3.805802687E0,-3.989818364E-1,3.871993323E0
1.924350000E-1,6.469338933E-1,3.648811963E0,-7.166049296E-1,3.774370786E0
2.024290000E-1,8.294868165E-1,3.269878475E0,-1.296286780E0,3.613933181E0
2.124230000E-1,1.171381702E0,2.548507773E0,-1.373619130E0,3.123116468E0
2.224170000E-1,1.492616108E0,1.742710585E0,-1.293128698E0,2.633842224E0
2.324110000E-1,1.455916790E0,1.098833470E0,-5.945033723E-1,1.918479334E0
2.424050000E-1,1.530578864E0,2.233799809E0,-1.210864806E-1,2.710571006E0
2.523990000E-1,8.025339297E-1,3.401262487E0,3.723465997E-1,3.514440099E0
2.623930000E-1,-4.475926638E-1,3.919776030E0,3.166740900E-1,3.957937063E0
2.723870000E-1,-9.745043427E-1,4.547304769E0,3.587670261E-1,4.664370606E0
2.823810000E-1,-8.664200232E-1,4.859170693E0,7.599140865E-1,4.993965649E0
2.923760000E-1,-3.011173535E-1,4.686380793E0,1.061232219E0,4.814462630E0
3.023700000E-1,-4.817859384E-1,3.673574922E0,9.489019436E-1,3.824615706E0
3.123640000E-1,-7.317799160E-1,2.779013785E0,1.032039410E-1,2.875599157E0
3.223580000E-1,-2.157626961E-1,3.551937926E0,-1.288369650E-1,3.560816695E0
3.323520000E-1,-5.573303201E-1,4.175235912E0,-3.696872860E-1,4.228460795E0
3.423460000E-1,-1.055366438E0,4.963766271E0,3.963868421E-1,5.090176465E0
3.523400000E-1,-1.435523456E0,5.904340611E0,1.275903386E0,6.208856182E0
3.623340000E-1,-1.401279384E0,6.546314603E0,1.779823447E0,6.927163222E0
3.723280000E-1,-3.059215173E-1,6.693881954E0,2.336895284E0,7.096669864E0
3.823220000E-1,1.514285890E0,6.687693261E0,3.015033136E0,7.490575927E0
3.923160000E-1,2.941199467E0,6.670212425E0,3.533115739E0,8.100944076E0
4.023100000E-1,2.708985191E0,6.570040265E0,3.848516305E0,8.081776265E0
4.123040000E-1,1.844794492E0,6.004377115E0,4.636257291E0,7.807092475E0
4.222980000E-1,4.794782251E-1,4.327134295E0,4.954420082E0,6.595473366E0
4.322920000E-1,-9.093717691E-1,2.203833121E0,4.076178231E0,4.722188731E0
4.422860000E-1,-1.009111600E0,1.142854818E0,3.114541637E0,3.467678325E0
4.522800000E-1,-3.000553530E-2,2.041618203E0,2.303058617E0,3.077853832E0
4.622740000E-1,1.658444752E0,3.696270012E0,1.538188430E0,4.333459893E0
4.722690000E-1,2.711143398E0,4.803933801E0,4.712002122E-1,5.536253980E0
4.822630000E-1,2.610180695E0,5.126794830E0,-2.715499574E-1,5.759410375E0
4.922570000E-1,1.004031905E0,4.860300960E0,-3.714771187E-1,4.976806279E0
5.022510000E-1,-3.586305521E0,4.521666190E0,1.018514215E0,5.860411558E0
5.122450000E-1,-5.593431290E0,4.323916865E0,5.531426246E0,8.976603309E0
5.222390000E-1,-4.565945107E0,2.613097579E0,6.786870809E0,8.587068712E0
5.322330000E-1,-2.708725575E0,6.677566322E-1,5.567611156E0,6.227470364E0
5.422270000E-1,-1.255885589E0,1.453463591E0,4.909719288E0,5.272110442E0
5.522210000E-1,-7.589132624E-1,4.138077441E0,3.823745161E0,5.685126322E0
5.622150000E-1,-6.807332848E-1,5.266064397E0,2.772338018E0,5.990049259E0
5.722083750E-1,-1.287615797E0,4.776161281E0,2.989474956E0,5.779847017E0
5.822023750E-1,-1.757549064E0,3.647093174E0,3.253748639E0,5.193952978E0
5.921963750E-1,-2.319275869E0,2.362296466E0,3.032629162E0,4.489579578E0
6.021903750E-1,-2.118728067E0,2.107143855E0,2.445580405E0,3.861337510E0
6.121843750E-1,-1.703485562E0,2.505005365E0,1.422932793E0,3.346887012E0
6.221783750E-1,-1.495297934E0,2.446679389E0,3.363809609E-1,2.887093364E0
6.321723750E-1,-2.448361633E0,1.491130477E0,4.116615236E-2,2.866991356E0
6.421663750E-1,-3.200612066E0,8.345287974E-1,3.508066267E-1,3.326172155E0
6.521613750E-1,-3.355933410E0,2.443088212E-1,-5.818505824E-2,3.365317422E0
6.621553750E-1,-3.121558295E0,-2.937329597E-1,-1.058941864E0,3.309344817E0
6.721493750E-1,-2.110938698E0,-4.990718427E-1,-1.369013863E0,2.565021218E0
6.821433750E-1,-8.831847945E-1,-3.219811326E-1,-1.355503871E0,1.649569027E0
6.921373750E-1,-1.664480102E-1,-6.206883734E-1,-1.239034937E0,1.395767378E0
7.021313750E-1,-3.047115639E-1,-1.595610427E0,-1.056600055E0,1.937840408E0
7.121253750E-1,-8.643908932E-1,-2.130820401E0,-1.294156639E0,2.638637642E0
7.221193750E-1,-1.359935476E0,-1.841282946E0,-1.756777816E0,2.885483614E0
7.321133750E-1,-1.203904792E0,-1.185576695E0,-2.753186048E0,3.230326959E0
7.421073750E-1,-3.707273595E-1,5.607004724E-2,-5.082406277E0,5.096217832E0
7.521013750E-1,6.770719776E-1,1.385532832E0,-7.480107926E0,7.637417252E0
7.620953750E-1,1.574506656E0,2.006499095E0,-8.637512224E0,9.006204931E0
7.720893750E-1,1.560729446E0,1.793088002E0,-8.690795562E0,9.010048195E0
7.820833750E-1,1.204829091E0,9.380573320E-1,-8.212661721E0,8.353405129E0
7.920773750E-1,5.302828181E-1,-1.169810043E-1,-7.179006141E0,7.199514816E0
8.020713750E-1,-2.931405088E-1,-7.667727242E-1,-5.931144247E0,5.987682678E0
8.120653750E-1,-8.768009506E-2,-1.016968212E0,-5.193999803E0,5.293349232E0
8.220593750E-1,9.350027465E-1,-1.074039814E0,-5.108522866E0,5.303281770E0
8.320533750E-1,1.663678741E0,-6.944564076E-1,-4.175154635E0,4.547748111E0
8.420483750E-1,2.666137379E0,-1.436222345E-1,-3.126969894E0,4.111794813E0
8.520423750E-1,3.747154822E0,3.036637428E-1,-2.120293951E0,4.316135698E0
8.620363750E-1,4.019937080E0,6.406284752E-1,4.258527160E-2,4.070885957E0
8.720303750E-1,3.939486701E0,4.013075665E-1,2.499252582E0,4.682613234E0
8.820243750E-1,3.877911428E0,-3.338891700E-2,4.124678546E0,5.661473745E0
8.920183750E-1,3.769111117E0,2.642621340E-1,5.353531142E0,6.552581840E0
9.020123750E-1,4.097062147E0,1.378498047E0,5.941993171E0,7.348024084E0
9.120063750E-1,5.554943163E0,2.447475780E0,5.198685762E0,7.992112667E0
9.220003750E-1,6.310840797E0,3.398720118E0,4.273365639E0,8.345038280E0
9.319943750E-1,6.484848087E0,3.190985211E0,4.065843278E0,8.292570343E0
9.419883750E-1,6.097819714E0,1.843339558E0,5.342089310E0,8.313797219E0
9.519823750E-1,4.863322216E0,1.327514858E0,6.257961502E0,8.035936836E0
9.619763750E-1,3.600506068E0,1.997401850E0,5.931260607E0,7.220326203E0
9.719703750E-1,2.628285721E0,3.318517662E0,5.521083106E0,6.957212371E0
9.819643750E-1,1.856382942E0,4.401853525E0,4.305895454E0,6.431423462E0
9.919583750E-1,1.477592126E0,5.117922850E0,2.371127223E0,5.830836741E0
1.001952375E0,4.430281810E-1,5.554563094E0,9.385412621E-1,5.650690651E0
1.011946375E0,-9.764714192E-1,5.592608587E0,-3.606954378E-1,5.688661393E0
1.021940375E0,-1.994314813E0,5.121590223E0,-1.307066122E0,5.649460137E0
1.031935375E0,-2.145228525E0,4.214192694E0,-1.803894680E0,5.061171949E0
1.041929375E0,-1.556527783E0,3.537211128E0,-1.918689557E0,4.314627553E0
1.051923375E0,-7.708020405E-1,3.256859942E0,-1.576454363E0,3.699524406E0
1.061917375E0,-3.466409241E-1,3.279373477E0,-8.965342802E-1,3.417341663E0
1.071911375E0,-6.063116781E-1,3.301818014E0,-1.091926593E0,3.530144435E0
1.081905375E0,-1.190418555E0,3.013724822E0,-2.176176960E0,3.903252464E0
1.091899375E0,-1.586518006E0,2.853204426E0,-3.978365423E0,5.146377981E0
1.101893375E0,-1.657557145E0,3.409519048E0,-6.135352407E0,7.212133178E0
1.111887375E0,-1.438580234E0,4.264109204E0,-8.006920422E0,9.184928690E0
1.121881375E0,-1.301581726E0,5.375856396E0,-9.662715070E0,1.113382277E1
1.131875375E0,-1.449278300E0,6.276018873E0,-1.032609280E1,1.217033331E1
1.141869375E0,-1.571254873E0,6.366786371E0,-9.807072299E0,1.179760474E1
1.151863375E0,-8.755679190E-1,5.360702752E0,-7.926832278E0,9.609288379E0
1.161857375E0,-1.002071187E0,4.130288950E0,-3.734902566E0,5.657997053E0
1.171851375E0,-1.981081687E0,3.402330774E0,8.789481944E-1,4.033991729E0
1.181845375E0,-2.398321454E0,2.575622481E0,2.479680782E0,4.305182196E0
1.191839375E0,-2.806385478E0,2.144996829E0,1.928094803E0,4.024221716E0
1.201833375E0,-3.031843589E0,2.768351972E0,1.279587132E0,4.300371078E0
1.211827375E0,-2.898098763E0,4.272380675E0,7.767376953E-1,5.220683339E0
1.221821375E0,-2.696421863E0,6.022969506E0,1.843255797E0,6.851601599E0
1.231815375E0,-1.423869955E0,6.517969056E0,4.216803768E0,7.892576276E0
1.241810375E0,-3.704993181E-2,5.302627621E0,8.509813712E0,1.002677225E1
1.251804375E0,1.656267688E-1,2.356426592E0,1.497334636E1,1.515853818E1
1.261798375E0,-1.361922360E0,-1.232845221E0,2.207014474E1,2.214646764E1
1.271792375E0,-3.094823948E0,-5.450275664E0,2.556477528E1,2.632187636E1
1.281786375E0,-4.704302216E0,-7.588838071E0,2.273251499E1,2.442310710E1
1.291780375E0,-4.455285966E0,-5.980386574E0,1.563919219E1,1.732624971E1
1.301774375E0,-2.600361173E0,-2.218036885E0,8.644563382E0,9.295700184E0
1.311768375E0,-4.841375789E-1,1.121128611E0,3.155140024E0,3.383227325E0
1.321762375E0,1.529269087E0,2.824729071E0,-1.218484898E0,3.435471396E0
1.331756375E0,2.343348125E0,3.113890842E0,-3.880194181E0,5.499409376E0
1.341750375E0,1.969594539E0,2.251791984E0,-5.213120198E0,6.010531756E0
1.351744375E0,1.409091264E0,7.767185457E-1,-5.603235902E0,5.829672586E0
1.361738375E0,7.561337154E-1,-1.156612585E0,-5.265882549E0,5.444172103E0
1.371732375E0,-3.716295118E-1,-3.060329762E0,-3.940798232E0,5.003360615E0
1.381726375E0,-1.120548055E0,-4.493827888E0,-3.220588494E0,5.641126420E0
1.391720375E0,-1.622715487E0,-5.091830819E0,-3.815413463E0,6.566378495E0
1.401714375E0,-1.630678225E0,-4.755133232E0,-5.482765133E0,7.438488894E0
1.411708375E0,-7.319296778E-1,-3.790535315E0,-7.654853135E0,8.573252332E0
1.421702375E0,2.162796996E-1,-2.660530192E0,-9.424256845E0,9.794989274E0
1.431696375E0,1.247286528E0,-1.722263749E0,-1.086774728E1,1.107383615E1
1.441690375E0,2.589198254E0,-7.863773420E-1,-1.182960022E1,1.213514641E1
1.451684375E0,3.452519180E0,-4.064933158E-2,-1.242705234E1,1.289779714E1
1.461679375E0,3.453211783E0,-9.638060577E-2,-1.223662490E1,1.271491053E1
1.471673375E0,3.233989143E0,-1.023788696E0,-1.069748221E1,1.122243087E1
1.481667375E0,2.438692385E0,-2.158425983E0,-7.917769679E0,8.561372551E0
1.491661375E0,1.787982214E0,-3.412742034E0,-4.553394644E0,5.964653499E0
1.501655375E0,1.782109416E0,-4.239903193E0,-2.049505804E0,5.035192856E0
1.511649375E0,1.955298097E0,-3.706572222E0,-1.131408162E0,4.340731817E0
1.521643375E0,3.471405394E0,-2.248745000E0,-1.165957605E0,4.297320866E0
1.531637375E0,4.978857350E0,-7.865696423E-1,-1.686559188E0,5.315279317E0
1.541631375E0,5.101284013E0,9.682111307E-1,-2.085431682E0,5.595494319E0
1.551625375E0,4.511361349E0,2.971462609E0,-2.273336050E0,5.860889698E0
1.561619375E0,4.638581851E0,3.897500185E0,-1.400913348E0,6.218481124E0
1.571614000E0,5.339030047E0,3.389639392E0,1.370571561E0,6.470963101E0
1.581608000E0,6.683748145E0,1.314615608E0,5.252969558E0,8.601999339E0
1.591602000E0,8.419656079E0,-1.386423948E0,8.617553923E0,1.212744884E1
1.601596000E0,8.247871900E0,-2.182567821E0,1.147126881E1,1.429618835E1
1.611590000E0,6.340759830E0,-9.578869944E-1,1.213495819E1,1.372515913E1
1.621584000E0,4.568324632E0,1.070812516E0,9.521650992E0,1.061499256E1
1.631578000E0,2.870006693E0,3.601563245E0,5.803209507E0,7.408470612E0
1.641572000E0,1.119174544E0,5.725138654E0,2.408184537E0,6.311031376E0
1.651566000E0,-6.256976831E-1,6.902174394E0,-2.338441873E-1,6.934420816E0
1.661560000E0,-2.563160895E0,7.090931286E0,-1.536857604E0,7.695000427E0
1.671554000E0,-3.474240417E0,6.268352589E0,-6.857152587E-1,7.199499710E0
1.681549000E0,-3.490061813E0,4.534089476E0,2.339535302E0,6.181579431E0
1.691543000E0,-3.334233808E0,2.701858605E0,4.423090028E0,6.162863003E0
1.701537000E0,-3.070362706E0,2.486291059E0,4.760248668E0,6.186173111E0
1.711531000E0,-2.832388631E0,3.912421987E0,3.435417536E0,5.927188609E0
1.721525000E0,-1.971169194E0,5.687641044E0,3.251665860E-1,6.028308382E0
1.731519000E0,-1.127609518E0,7.101204844E0,-2.732523158E0,7.691898092E0
1.741513000E0,-9.219921800E-1,7.914430919E0,-4.763592691E0,9.283323848E0
1.751507000E0,-1.417076514E0,8.183554282E0,-5.848562851E0,1.015796997E1
1.761501000E0,-2.393178389E0,7.849091207E0,-6.294009587E0,1.034166777E1
1.771495000E0,-4.076373821E0,6.748836426E0,-5.071080805E0,9.374405429E0
1.781489000E0,-5.457154913E0,5.207203985E0,-2.076421123E0,7.823492683E0
1.791483000E0,-5.702497650E0,3.494357470E0,1.157300218E0,6.787367484E0
1.801477000E0,-5.010533472E0,2.125166728E0,3.446427843E0,6.442021746E0
1.811471000E0,-4.608775377E0,1.255460935E0,4.430414835E0,6.515026343E0
1.821465000E0,-4.625365098E0,6.666556746E-1,4.204464973E0,6.286171950E0
1.831459000E0,-3.706654667E0,7.810852464E-1,3.385299296E0,5.080318328E0
1.841453000E0,-2.096632316E0,2.101535791E0,2.937445847E0,4.176231298E0
1.851447000E0,-7.275794224E-1,2.817507759E0,3.429450452E0,4.497649630E0
1.861441000E0,-3.106064343E-1,2.349858269E0,5.137074235E0,5.657547343E0
1.871435000E0,-1.607721472E0,2.076582798E0,7.537176166E0,7.981603160E0
1.881429000E0,-2.510524552E0,1.427047625E0,9.330230108E0,9.766902904E0
1.891423000E0,-2.312331716E0,4.651606232E-3,1.060881269E1,1.085789143E1
1.901417000E0,-1.174447689E0,-2.735799645E0,1.116302933E1,1.155323119E1
1.911411000E0,-2.042987328E0,-4.685786131E0,1.160121032E1,1.267747884E1
1.921405000E0,-3.676288322E0,-4.502779391E0,1.071054255E1,1.218629721E1
1.931400000E0,-2.860017017E0,-3.763238173E0,7.622452544E0,8.969026796E0
1.941394000E0,-9.377066452E-1,-2.275155557E0,4.635545100E0,5.248228743E0
1.951388000E0,1.334710003E0,-8.435946129E-1,1.646665390E0,2.281361342E0
1.961382000E0,3.396169270E0,-6.048213691E-2,-3.669958127E-1,3.416476215E0
1.971376000E0,3.886297797E0,-5.352690312E-1,-1.087104394E0,4.070825403E0
1.981370000E0,2.652252581E0,-2.115272947E0,-8.682700092E-1,3.501816129E0
1.991364000E0,7.044352658E-1,-3.780995582E0,-1.780149722E-1,3.850174797E0
2.001358000E0,-1.077411903E0,-5.421515549E0,8.592623734E-1,5.593923407E0
2.011352000E0,-2.178613641E0,-6.559437509E0,1.661430779E0,7.108651776E0
2.021346000E0,-2.086497775E0,-6.823643364E0,1.889833547E0,7.381534567E0
2.031340000E0,-9.743645212E-1,-6.333102901E0,1.258485700E0,6.530035592E0
2.041334000E0,5.801862455E-1,-5.192023444E0,-7.599363059E-1,5.279320668E0
2.051328000E0,1.767237316E0,-3.826690696E0,-3.705766475E0,5.612432145E0
2.061322000E0,2.593062971E0,-2.589592064E0,-6.664443562E0,7.605574970E0
2.071316000E0,2.567072975E0,-1.769857015E0,-8.855527999E0,9.388430841E0
2.081310000E0,1.983167973E0,-1.577410383E0,-1.042079547E1,1.072446535E1
2.091304000E0,1.480252902E0,-1.673414501E0,-1.095479127E1,1.118029143E1
2.101298000E0,8.689096946E-1,-1.893677799E0,-1.106910434E1,1.126348483E1
2.111292000E0,8.358493911E-1,-2.184260736E0,-1.128772471E1,1.152746149E1
2.121286000E0,1.417090401E0,-2.411263681E0,-1.048028621E1,1.084706121E1
2.131280000E0,2.429509625E0,-2.547692671E0,-8.743265551E0,9.425388452E0
2.141274000E0,3.551299410E0,-2.877900726E0,-6.717649716E0,8.125322012E0
2.151268000E0,4.491277333E0,-3.073769002E0,-4.785157222E0,7.246886062E0
2.161262000E0,5.385423610E0,-2.957890636E0,-3.488872197E0,7.065701217E0
2.171256000E0,5.013751779E0,-2.611068302E0,-3.269217448E0,6.530173604E0
2.181250000E0,3.808590932E0,-1.756622134E0,-3.475269234E0,5.446887410E0
2.191244000E0,3.808644726E0,-2.939773916E-1,-4.011944813E0,5.539665923E0
2.201239000E0,4.470018319E0,2.638804570E0,-5.060392680E0,7.249270818E0
2.211233000E0,4.864368576E0,5.421176995E0,-5.017748936E0,8.844718539E0
2.221227000E0,5.417786779E0,5.906646752E0,-2.972858924E0,8.548612731E0
2.231221000E0,5.637218165E0,3.999280329E0,1.681604843E0,7.113386439E0
2.241215000E0,4.833050596E0,4.671765970E-1,8.033290780E0,9.386713631E0
2.251209000E0,3.925646342E0,-3.021536994E0,1.276308364E1,1.369075195E1
2.261203000E0,2.355050304E0,-3.272933061E0,1.463191107E1,1.517732434E1
2.271197000E0,1.412290276E0,-7.846699550E-1,1.337253659E1,1.346978120E1
2.281191000E0,1.607299011E0,1.747484544E0,1.020913562E1,1.048158206E1
2.291185000E0,1.108742673E0,3.366355487E0,6.979014409E0,7.827407086E0
2.301179000E0,9.590003774E-2,4.137030789E0,4.030717299E0,5.776755362E0
2.311173000E0,-1.042445626E0,4.453496134E0,1.389972623E0,4.780412596E0
2.321167000E0,-2.083563496E0,4.550061146E0,-1.118392845E0,5.127874397E0
2.331161000E0,-2.706139351E0,4.367592350E0,-3.300109457E0,6.106535479E0
2.341155000E0,-3.002584414E0,3.987681499E0,-4.708399068E0,6.861934034E0
2.351149000E0,-2.527164266E0,3.736102999E0,-5.066698317E0,6.783543078E0
2.361143000E0,-1.885301663E0,3.912205347E0,-4.404800522E0,6.185626943E0
2.371137000E0,-1.440961221E0,3.988488123E0,-4.097415318E0,5.896882145E0
2.381131000E0,-4.469135828E-1,4.107729807E0,-5.129726039E0,6.586901028E0
2.391125000E0,5.969119866E-1,4.879359082E0,-6.308265683E0,7.997416139E0
2.401119000E0,5.057997221E-1,6.051340197E0,-7.176804664E0,9.401121035E0
2.411113000E0,-8.249098353E-1,6.318082573E0,-7.342663275E0,9.721797550E0
2.421107000E0,-2.810674118E0,5.383621498E0,-7.162738017E0,9.390851151E0
2.431101000E0,-4.696130440E0,3.720488887E0,-6.461048750E0,8.811403386E0
2.441095000E0,-5.801592752E0,1.537775763E0,-4.429449459E0,7.459440681E0
2.451089000E0,-6.608276963E0,-2.199770768E-1,-1.169479383E0,6.714565984E0
2.461083000E0,-5.978483305E0,-7.322893547E-1,1.881194286E0,6.310103190E0
2.471077000E0,-4.058009763E0,-2.065227798E-1,3.311139060E0,5.241539542E0
2.481071000E0,-2.205135881E0,8.275695875E-1,2.663353520E0,3.555411038E0
2.491065000E0,-1.860371036E0,2.298440047E0,1.526091710E0,3.327576137E0
2.501060000E0,-2.513739059E0,3.705277940E0,8.650698280E-1,4.560297631E0
2.511054000E0,-2.738232379E0,4.475946811E0,1.229028597E0,5.389111959E0
2.521048000E0,-2.337408377E0,4.628538674E0,2.440501513E0,5.730872169E0
2.531042000E0,-2.656067889E0,4.494218775E0,4.688059528E0,7.016452178E0
2.541036000E0,-3.713937374E0,3.496419783E0,7.750283203E0,9.278209517E0
2.551030000E0,-5.385115462E0,6.461015421E-1,1.130359522E1,1.253747107E1
2.561024000E0,-7.335755959E0,-1.686950659E0,1.417226495E1,1.604718704E1
2.571018000E0,-6.589733688E0,-2.385821715E0,1.298498898E1,1.475556418E1
2.581012000E0,-4.431355359E0,-1.426299181E0,9.104811174E0,1.022589000E1
2.591006000E0,-2.247818655E0,4.101456329E-2,4.878315647E0,5.371436907E0
2.601000000E0,-4.214530882E-1,9.095672853E-1,1.507376527E0,1.810281566E0
2.610994000E0,1.119402513E0,6.574485026E-1,-8.067111075E-2,1.300695332E0
2.620988000E0,1.970422066E0,-4.370792238E-1,-1.779120612E-1,2.026142658E0
2.630982000E0,2.743454820E0,-1.910070468E0,-1.287410706E-1,3.345368112E0
2.640976000E0,2.793684156E0,-3.241995735E0,-7.807319283E-2,4.280339114E0
2.650970000E0,1.254187850E0,-4.290278125E0,-4.286038309E-1,4.490342392E0
2.660964000E0,-2.179291078E-1,-5.030837928E0,-1.294956538E0,5.199397637E0
2.670958000E0,-5.767550994E-1,-5.025454981E0,-2.360682342E0,5.582173890E0
2.680952000E0,1.606691339E-1,-4.471060585E0,-3.726096075E0,5.822369731E0
2.690946000E0,1.572778950E0,-3.598782309E0,-5.283797833E0,6.583569493E0
2.700940000E0,3.558875940E0,-2.648787229E0,-6.784671671E0,8.106382758E0
2.710934000E0,4.611147300E0,-1.696454578E0,-7.742634460E0,9.170006867E0
2.720928000E0,4.530517997E0,-1.900721355E0,-8.511028179E0,9.827305615E0
2.730922000E0,3.214248943E0,-3.161115294E0,-7.717492018E0,8.937769812E0
2.740916000E0,1.667684522E0,-4.441072555E0,-5.882972546E0,7.557358207E0
2.750910000E0,7.413526120E-1,-5.581524605E0,-3.822278679E0,6.805353401E0
2.760904000E0,6.828660567E-1,-6.139791613E0,-1.775937388E0,6.427853507E0
2.770898000E0,1.601458958E0,-5.823151436E0,-7.085831344E-1,6.080777377E0
2.780892000E0,3.192720664E0,-4.482328754E0,-6.820929086E-1,5.545267084E0
2.790886000E0,4.673916868E0,-2.471292951E0,-1.454014252E0,5.483333401E0
2.800880000E0,5.343159935E0,-3.539848807E-1,-2.587407544E0,5.947212893E0
2.810874000E0,5.005622395E0,1.573448895E0,-2.464354645E0,5.796985493E0
2.820868000E0,3.275409649E0,3.117990909E0,-1.990200419E0,4.940756358E0
2.830862000E0,2.093768057E0,3.271921493E0,-2.970669726E0,4.890216105E0
2.840856000E0,1.531300995E0,1.984459038E0,-3.202595442E0,4.066887997E0
2.850851000E0,1.676537645E0,-2.406287116E-1,-1.154909876E0,2.049999384E0
2.860845000E0,3.726181444E0,-1.994525020E0,1.845392954E0,4.611727807E0
2.870839000E0,5.593872170E0,-9.361653922E-1,5.014771534E0,7.570716283E0
2.880833000E0,6.318491879E0,2.082009745E0,7.038605137E0,9.685043442E0
2.890827000E0,6.740052153E0,4.543854619E0,7.029561249E0,1.074661106E1
2.900821000E0,5.881603128E0,6.038441239E0,4.748570024E0,9.674964869E0
2.910815000E0,3.749731982E0,7.049675671E0,1.438829618E0,8.113485544E0
2.920809000E0,1.628242129E0,7.101867918E0,-1.814459429E0,7.508659226E0
2.930803000E0,3.256657921E-2,6.057759855E0,-4.323035397E0,7.442187184E0
2.940797000E0,-8.780559824E-1,4.517704409E0,-4.844717546E0,6.682209480E0
2.950791000E0,-1.594744746E0,2.729048742E0,-3.019134373E0,4.371051384E0
2.960785000E0,-2.320822311E0,7.921417464E-1,3.614573300E-2,2.452551990E0
2.970779000E0,-2.466389768E0,-5.788680638E-1,2.857071775E0,3.818510947E0
2.980773000E0,-2.043103542E0,-6.655726241E-1,4.623997434E0,5.098883335E0
2.990767000E0,-1.608022165E0,-8.424259007E-2,4.003492663E0,4.315180830E0
3.000761000E0,-1.490711816E0,1.146180568E0,1.709681418E0,2.541448832E0
3.010755000E0,-2.251464247E0,2.852540182E0,-4.362209988E-1,3.660104576E0
3.020749000E0,-3.580506252E0,4.067977511E0,-2.692480255E0,6.051273914E0
3.030743000E0,-4.784787386E0,4.661010309E0,-4.529705819E0,8.070777053E0
3.040737000E0,-5.257451448E0,4.225742991E0,-5.056187362E0,8.429871304E0
3.050731000E0,-5.708571737E0,2.887263288E0,-3.989709606E0,7.539354304E0
3.060725000E0,-6.535609521E0,1.070041049E0,-7.993079478E-1,6.670687584E0
3.070719000E0,-6.742868173E0,-8.428097704E-1,2.959040784E0,7.411647716E0
3.080713000E0,-6.512632887E0,-2.072653762E0,5.502938027E0,8.774543160E0
3.090707000E0,-5.753619272E0,-1.189290773E0,5.522588764E0,8.063345083E0
3.100701000E0,-3.918453097E0,1.564039263E0,3.150078090E0,5.265309627E0
3.110695000E0,-1.666857580E0,4.070615775E0,3.325533736E-1,4.411226442E0
3.120689000E0,-4.036886989E-1,6.373633461E0,-2.702923967E0,6.934837131E0
3.130683000E0,-3.956569634E-1,8.439015040E0,-4.010257891E0,9.351774572E0
3.140677000E0,-1.437141819E0,7.131403373E0,-2.029137613E0,7.552462521E0
3.150671000E0,-3.600900171E0,1.583292536E0,4.425064632E0,5.920683600E0
3.160665000E0,-6.743857521E0,-4.004068029E0,1.266441071E1,1.489629060E1
3.170659000E0,-9.047161721E0,-7.008703061E0,1.479039166E1,1.870103578E1
3.180653000E0,-7.919689904E0,-7.003684981E0,1.199370934E1,1.598818799E1
3.190647000E0,-4.972169890E0,-5.256882514E0,7.828437088E0,1.066028679E1
3.200641000E0,-3.240298508E-1,-2.861257212E0,2.657094076E0,3.918154808E0
3.210635000E0,3.697080436E0,-4.173698679E-1,-4.454555064E-1,3.747136502E0
3.220629000E0,4.033051800E0,-3.815235123E-2,-1.349505798E0,4.253014028E0
3.230623000E0,1.653743152E0,-1.499030065E0,-1.699402013E0,2.805338616E0
3.240618000E0,-3.417897085E-1,-3.173141263E0,-2.257388354E0,3.909149250E0
3.250612000E0,-8.872054131E-1,-3.856577861E0,-2.873529932E0,4.890552169E0
3.260606000E0,-2.171584996E-1,-3.979380792E0,-3.806962482E0,5.511405687E0
3.270600000E0,9.303087480E-1,-4.061488856E0,-4.214774199E0,5.926675935E0
3.280594000E0,1.760591955E0,-3.933790344E0,-4.169751808E0,5.996767516E0
3.290588000E0,2.327670717E0,-3.891291611E0,-4.128881525E0,6.132525093E0
3.300582000E0,2.760970154E0,-3.941030951E0,-4.246945580E0,6.418039257E0
3.310576000E0,2.665959916E0,-3.757054743E0,-4.622920377E0,6.526422866E0
3.320570000E0,2.681728980E0,-3.475289115E0,-5.668714192E0,7.169632162E0
3.330564000E0,3.044757749E0,-2.949254884E0,-6.877393309E0,8.078811351E0
3.340558000E0,3.533523874E0,-2.445434956E0,-7.479562966E0,8.626111827E0
3.350552000E0,3.701423163E0,-2.406015220E0,-7.143901797E0,8.397903045E0
3.360546000E0,4.152536728E0,-3.107897446E0,-5.890177485E0,7.848361524E0
3.370540000E0,4.521430255E0,-3.759171435E0,-3.734872161E0,6.965914978E0
3.380534000E0,4.035476933E0,-4.037954983E0,-1.921328990E0,6.023425902E0
3.390528000E0,3.193974015E0,-3.883082120E0,-1.453314341E0,5.233729008E0
3.400522000E0,2.295234457E0,-2.718791849E0,-1.347421265E0,3.804664821E0
3.410516000E0,2.256047734E0,-4.661471947E-1,-1.151868154E0,2.575625134E0
3.420510000E0,3.114691910E0,2.078167247E0,-1.133147124E0,3.912046422E0
3.430504000E0,3.206617449E0,4.990307368E0,-1.100890374E0,6.033035945E0
3.440498000E0,3.992972645E0,6.589990965E0,-6.379984707E-1,7.731678570E0
3.450492000E0,4.935736474E0,4.970784100E0,1.426199632E0,7.148722578E0
3.460486000E0,5.028853968E0,3.789963457E-1,5.538866243E0,7.490797669E0
3.470480000E0,3.440342938E0,-4.245429397E0,1.021836720E1,1.158769427E1
3.480474000E0,5.883583872E-1,-5.579734772E0,1.355908499E1,1.467407208E1
3.490468000E0,-9.714770199E-1,-3.900317958E0,1.456021485E1,1.510483711E1
3.500462000E0,-8.523077682E-1,-8.129819539E-1,1.293168810E1,1.298521950E1
3.510456000E0,-1.039924673E0,2.221359419E0,9.385662298E0,9.700852424E0
3.520450000E0,-1.449983182E0,4.383146236E0,5.641967273E0,7.290145188E0
3.530444000E0,-1.746426929E0,5.334207264E0,2.886342936E0,6.311477616E0
3.540438000E0,-2.296245002E0,5.421028476E0,5.012747812E-1,5.908601125E0
3.550432000E0,-2.765430118E0,5.313183600E0,-1.732692550E0,6.235362634E0
3.560426000E0,-2.298487263E0,5.315675683E0,-3.081404881E0,6.560069185E0
3.570420000E0,-1.758025466E0,5.716411099E0,-4.262544782E0,7.344201618E0
3.580413750E0,-1.417101511E0,5.559751328E0,-6.115688805E0,8.385741534E0
3.590407750E0,-1.309324316E0,5.265178544E0,-7.077548763E0,8.917854661E0
3.600401750E0,-1.405500050E0,5.153329495E0,-6.669551690E0,8.544890579E0
3.610395750E0,-1.488765278E0,5.020724584E0,-5.340946180E0,7.479960127E0
3.620389750E0,-2.035191674E0,4.767434312E0,-3.890442011E0,6.481201594E0
3.630383750E0,-2.715699256E0,4.514186724E0,-2.712874174E0,5.925587778E0
3.640377750E0,-3.357420357E0,3.921404772E0,-2.115563554E0,5.579004928E0
3.650371750E0,-3.817478700E0,3.038367327E0,-1.952071896E0,5.255036091E0
3.660365750E0,-4.354249004E0,2.102313617E0,-1.343636363E0,5.018422621E0
3.670359750E0,-4.676261894E0,9.204410599E-1,-2.933758593E-1,4.775008528E0
3.680353750E0,-5.206502320E0,-2.505923671E-1,1.724877162E0,5.490506731E0
3.690347750E0,-5.425947738E0,-1.083012659E0,3.529299846E0,6.562757247E0
3.700341750E0,-5.643198112E0,-1.147277652E0,4.728135760E0,7.450986425E0
3.710335750E0,-5.590545105E0,-1.188306248E-1,4.693957615E0,7.300791284E0
3.720329750E0,-4.710616332E0,2.062806027E0,3.769643213E0,6.376149692E0
3.730323750E0,-2.699285830E0,4.166146707E0,2.195467510E0,5.427983047E0
3.740317750E0,2.586008598E-1,5.226606216E0,1.357560922E0,5.406224061E0
3.750311750E0,8.192632522E-1,4.978493069E0,3.592876037E0,6.193976407E0
3.760306750E0,-2.899348606E0,1.819455437E0,7.596791453E0,8.332339456E0
3.770300750E0,-8.050969251E0,-2.359468168E0,9.875001158E0,1.295765580E1
3.780294750E0,-8.825936995E0,-4.149535645E0,7.715318023E0,1.243551133E1
3.790288750E0,-5.723568091E0,-2.301041473E0,4.860612617E0,7.853634736E0
3.800282750E0,-1.256473673E0,-7.077573614E-1,2.205019521E0,2.634721553E0
3.810276750E0,2.400743224E0,-3.099566625E-1,4.770252085E-1,2.467223989E0
3.820270750E0,4.333265393E0,-5.855425143E-1,6.679952717E-1,4.423377294E0
3.830264750E0,4.536874505E0,-1.328336538E0,1.055777351E0,4.843797482E0
3.840258750E0,2.880986594E0,-2.647880618E0,3.718080711E-1,3.930597507E0
3.850252750E0,-6.192617990E-2,-4.363724709E0,-4.082373941E-1,4.383216394E0
3.860246750E0,-2.408448831E0,-5.907652473E0,-1.279569590E-1,6.381015319E0
3.870240750E0,-2.362296027E0,-6.303264560E0,1.715573072E-2,6.731410027E0
3.880234750E0,-8.755172675E-1,-5.680861198E0,-8.764888555E-1,5.814374184E0
3.890228750E0,1.737995098E0,-4.588420635E0,-3.977204751E0,6.316042156E0
3.900222750E0,5.183769515E0,-2.838587556E0,-7.854051400E0,9.829301557E0
3.910216750E0,7.725914347E0,-1.051624513E0,-1.042800392E1,1.302071167E1
3.920210750E0,7.639366785E0,-1.989246154E-1,-1.163625151E1,1.392127311E1
3.930204750E0,5.010411265E0,-1.141514490E0,-1.172938245E1,1.280568971E1
3.940198750E0,2.281033617E0,-3.503373876E0,-1.052432393E1,1.132422788E1
3.950192750E0,6.789014983E-1,-5.630110874E0,-7.255682434E0,9.208907822E0
3.960186750E0,6.112409540E-1,-6.944150385E0,-3.241531466E0,7.687806340E0
3.970180750E0,2.073184835E0,-7.366925712E0,-8.624298102E-1,7.701524198E0
3.980174750E0,4.740615180E0,-6.951937122E0,-5.017355418E-1,8.429389099E0
3.990168750E0,6.686822026E0,-6.130961732E0,-1.078261065E0,9.135914157E0
4.000162750E0,7.098920336E0,-5.427365688E0,-2.145222970E0,9.189828608E0
4.010156750E0,6.306877554E0,-4.579413584E0,-2.456952070E0,8.172169034E0
4.020150750E0,4.151116147E0,-3.494900968E0,7.113137841E-2,5.426892086E0
4.030144750E0,3.643881299E0,-3.096028183E0,2.560652440E0,5.424039301E0
4.040138750E0,4.312528535E0,-1.659815486E0,3.793911497E0,5.978850580E0
4.050132750E0,5.421061220E0,4.905027482E-1,3.359231240E0,6.396321773E0
4.060126750E0,5.377060922E0,5.502959369E-1,2.907340288E0,6.137445505E0
4.070120750E0,3.849931624E0,-1.415355532E0,3.882102712E0,5.647647851E0
4.080114750E0,2.816137464E0,-2.723749995E0,5.862251183E0,7.050917187E0
4.090108750E0,2.456128197E0,-1.607680542E0,7.977737553E0,8.500676380E0
4.100102750E0,2.229382968E0,-5.117907062E-2,9.634230359E0,9.888941416E0
4.110096750E0,1.239005993E0,1.291183330E0,9.726072575E0,9.889326467E0
4.120090750E0,3.673889648E-2,2.797191609E0,7.970205170E0,8.446881146E0
4.130084750E0,-7.287547128E-1,4.683639033E0,6.135785685E0,7.753413700E0
4.140078750E0,-1.943785514E0,6.050530942E0,3.773031675E0,7.390737096E0
4.150072750E0,-3.001636580E0,6.219220190E0,1.056312371E0,6.986008714E0
4.160066750E0,-4.014084309E0,5.966766070E0,-9.306434280E-1,7.251294185E0
4.170060750E0,-4.580897315E0,5.468645861E0,-2.310361789E0,7.498565153E0
4.180054750E0,-4.802566430E0,4.766956009E0,-3.122809015E0,7.452546548E0
4.190048750E0,-4.529050054E0,3.914839518E0,-3.711364599E0,7.043613421E0
4.200042750E0,-3.696918468E0,2.947006337E0,-4.216420190E0,6.334844255E0
4.210036750E0,-3.119253323E0,2.153535080E0,-4.079947931E0,5.568970260E0
4.220030750E0,-3.225629086E0,1.738587129E0,-2.750471771E0,4.581753285E0
4.230024750E0,-3.295632244E0,1.761716959E0,-1.294476482E0,3.954808200E0
4.240018750E0,-3.729543593E0,2.352339827E0,-1.262848892E0,4.586696567E0
4.250012750E0,-4.284891378E0,3.409050979E0,-2.517005314E0,6.026378551E0
4.260006750E0,-4.980330849E0,4.542722013E0,-3.892261080E0,7.783939553E0
4.270000750E0,-5.637816335E0,4.709855317E0,-4.916921303E0,8.839899617E0
4.279994750E0,-6.001144189E0,3.823866783E0,-5.027435433E0,8.712680172E0
4.289988750E0,-6.257515360E0,2.328110866E0,-3.648052703E0,7.608211827E0
4.299982750E0,-6.786172067E0,6.072431396E-1,-9.864644569E-1,6.884329138E0
4.309976750E0,-7.266664674E0,-7.068441725E-1,1.865493343E0,7.535523179E0
4.319970750E0,-6.680025807E0,-1.414039763E0,3.454549626E0,7.652200099E0
4.329964750E0,-5.299688226E0,-1.303030666E0,3.474399168E0,6.469623930E0
4.339958750E0,-4.451452532E0,-1.216805577E-3,3.755055580E0,5.823733642E0
4.349952750E0,-4.234220869E0,1.507125535E0,4.657919471E0,6.472732618E0
4.359946750E0,-4.553199931E0,2.750438734E0,6.303045874E0,8.247722724E0
4.369940750E0,-4.192820536E0,2.943656467E0,7.570329294E0,9.140828358E0
4.379934750E0,-3.205131672E0,2.859180573E0,7.397461041E0,8.553958875E0
4.389928750E0,-4.125595390E0,2.670865146E0,8.200724046E0,9.560645000E0
4.399922750E0,-5.366789703E0,3.758148757E-1,9.366344851E0,1.080148529E1
4.409916750E0,-5.708294579E0,-2.739509703E0,8.952145636E0,1.096496475E1
4.419910750E0,-5.800219241E0,-3.707914450E0,8.179906204E0,1.069121314E1
4.429904750E0,-3.851664154E0,-4.180687271E0,7.332373930E0,9.277778304E0
4.439898750E0,-1.072582688E0,-4.390372517E0,6.553487383E0,7.960778940E0
4.449892750E0,1.427674300E0,-4.441607282E0,5.825035994E0,7.463053898E0
4.459886750E0,3.481955818E0,-3.943880007E0,4.192763525E0,6.727367375E0
4.469880750E0,5.208626028E0,-3.299911821E0,1.344042744E0,6.310757009E0
4.479874750E0,5.493602362E0,-2.730181640E0,-1.591140230E0,6.337608850E0
4.489868750E0,4.765235758E0,-2.945905014E0,-4.730348346E0,7.332259110E0
4.499862750E0,4.015025126E0,-3.331115195E0,-7.358188802E0,9.019961067E0
4.509856750E0,3.540102869E0,-3.653107036E0,-8.999724430E0,1.033791851E1
4.519850750E0,3.520588664E0,-4.171923172E0,-9.853246007E0,1.126436613E1
4.529844750E0,4.048934299E0,-4.539067796E0,-1.018532342E1,1.186329712E1
4.539838750E0,4.500692812E0,-4.782459317E0,-1.024008376E1,1.216501000E1
4.549832750E0,4.805594703E0,-5.111704921E0,-9.963594661E0,1.218591343E1
4.559826750E0,5.290259006E0,-5.356118535E0,-8.918360424E0,1.167098962E1
4.569820750E0,5.618693016E0,-5.478204889E0,-7.741419994E0,1.102315851E1
4.579814500E0,5.815151861E0,-5.795968316E0,-7.262248857E0,1.096127266E1
4.589808500E0,5.636491941E0,-6.121293361E0,-6.852295305E0,1.077934250E1
4.599802500E0,5.299462523E0,-6.423002672E0,-6.729464015E0,1.070630432E1
4.609796500E0,4.866194661E0,-6.698908805E0,-6.717023479E0,1.066178381E1
4.619790500E0,4.410464427E0,-6.724097441E0,-6.549522970E0,1.037120697E1
4.629784500E0,3.149286084E0,-6.710826015E0,-5.577480086E0,9.276932293E0
4.639778500E0,1.293944093E0,-6.661504751E0,-4.109734817E0,7.933464384E0
4.649772500E0,3.047396122E-2,-6.235798216E0,-2.324219690E0,6.654930895E0
4.659766500E0,-1.072041948E-1,-4.929113917E0,3.900420284E-1,4.945683930E0
4.669760500E0,9.258674222E-1,-2.254731379E0,3.439096604E0,4.215261502E0
4.679754500E0,4.027382924E0,9.627393794E-1,4.872954919E0,6.394714222E0
4.689748500E0,6.839310978E0,4.379344668E0,4.794579425E0,9.430950442E0
4.699742500E0,5.638117467E0,6.629797640E0,4.286420717E0,9.701339489E0
4.709736500E0,2.176152841E0,5.101324943E0,3.319151500E0,6.463429743E0
4.719730500E0,1.222225581E-1,1.303520662E0,3.931685346E0,4.143941859E0
4.729724500E0,-1.868466798E-1,-3.756755657E-1,7.396735402E0,7.408625947E0
4.739718500E0,3.924740316E-1,-5.025506437E-2,1.111100548E1,1.111804858E1
4.749712500E0,3.914157952E-1,7.129945663E-1,1.281628278E1,1.284206649E1
4.759706500E0,-1.065635903E0,1.146874340E0,1.188826416E1,1.199090178E1
4.769700500E0,-3.245317246E0,1.526103697E0,9.681362425E0,1.032423629E1
4.779694500E0,-4.696228089E0,1.814559709E0,6.845406700E0,8.497457155E0
4.789688500E0,-4.772754401E0,2.303671989E0,3.961667529E0,6.616713596E0
4.799682500E0,-3.491877666E0,3.056570002E0,1.606779193E0,4.910964181E0
4.809676500E0,-2.296433721E0,3.833708231E0,-6.611458433E-1,4.517525923E0
4.819670500E0,-1.890042585E0,4.270281233E0,-3.077657400E0,5.592811266E0
4.829664500E0,-1.688369486E0,4.294580507E0,-5.154541038E0,6.918331198E0
4.839658500E0,-1.796366390E0,4.383537414E0,-6.105737429E0,7.728024458E0
4.849652500E0,-2.096223449E0,4.364168805E0,-5.913501443E0,7.642618754E0
4.859646500E0,-2.251586016E0,4.231104595E0,-4.767440159E0,6.760204978E0
4.869640500E0,-2.670449116E0,4.402534141E0,-2.366003308E0,5.666707774E0
4.879634500E0,-3.130605985E0,4.593638105E0,-3.599586886E-1,5.570617123E0
4.889628500E0,-3.969724993E0,4.596911961E0,2.766118920E-1,6.080035381E0
4.899622500E0,-5.305230217E0,4.371456482E0,2.827888906E-2,6.874292627E0
4.909616500E0,-6.896541186E0,3.578851490E0,-2.004659414E-2,7.769868737E0
4.919610500E0,-8.604597078E0,2.111994267E0,2.773047870E-1,8.864339152E0
4.929604500E0,-1.026080512E1,2.304428619E-1,1.142774565E0,1.032681749E1
4.939598500E0,-1.105093119E1,-1.461105902E0,2.863839342E0,1.150910450E1
4.949593500E0,-1.015706149E1,-2.612763995E0,5.174445544E0,1.169475611E1
4.959587500E0,-8.036417871E0,-2.833470950E0,6.640918459E0,1.080344241E1
4.969581500E0,-6.724489204E0,-1.711071009E0,5.917135488E0,9.119156290E0
4.979574500E0,-6.605068595E0,1.570738418E0,3.532498273E0,7.653279975E0
4.989569500E0,-4.485498237E0,5.725692970E0,2.288869178E-1,7.277062844E0
4.999562500E0,6.390581323E-1,8.182766662E0,-3.898695356E0,9.086577519E0
5.009556500E0,3.799474538E0,9.672468810E0,-4.074691869E0,1.116224769E1
5.019551500E0,-2.100482123E-1,9.696907833E0,1.798238084E0,9.864471703E0
5.029545500E0,-5.651620442E0,3.115298559E0,6.707976083E0,9.308213677E0
5.039538500E0,-9.980831083E0,-4.863996693E0,1.074220288E1,1.544896034E1
5.049532500E0,-1.133022228E1,-7.933846014E0,1.434920754E1,1.993036895E1
5.059526500E0,-6.191062923E0,-8.548059765E0,1.483833415E1,1.820919400E1
5.069520500E0,3.353694657E-1,-7.435988345E0,1.180160843E1,1.395293363E1
5.079515500E0,4.534054686E0,-5.133937204E0,7.963297269E0,1.050376440E1
5.089509500E0,6.427906732E0,-2.992885637E0,4.363988126E0,8.325847810E0
5.099502500E0,6.170247420E0,-2.290916873E0,5.363247460E-1,6.603627607E0
5.109497500E0,4.136649551E0,-2.551639834E0,-3.155076290E0,5.794587280E0
5.119490500E0,1.858300683E0,-2.857027336E0,-6.075876283E0,6.966502654E0
5.129484500E0,2.145693525E-1,-2.973721680E0,-7.748890981E0,8.302672586E0
5.139479500E0,-6.544866686E-1,-2.983743808E0,-8.222323076E0,8.771412467E0
5.149473500E0,-4.325475586E-1,-2.955586249E0,-8.182338061E0,8.710524875E0
5.159467500E0,6.931719936E-1,-3.295459167E0,-8.503920304E0,9.146430947E0
5.169460500E0,1.877868244E0,-3.648282790E0,-9.312953925E0,1.017681027E1
5.179454500E0,2.981958653E0,-3.881876132E0,-1.022999614E1,1.134080512E1
5.189448500E0,4.570756196E0,-4.640865774E0,-1.045890294E1,1.232144870E1
5.199442500E0,5.833665900E0,-5.552618895E0,-9.539035934E0,1.248424771E1
5.209436500E0,6.241868210E0,-6.844144287E0,-8.709810122E0,1.271471675E1
5.219430500E0,5.482679179E0,-8.172389023E0,-8.091815561E0,1.274069042E1
5.229424500E0,3.485621729E0,-9.155873154E0,-7.057633731E0,1.207434329E1
5.239418500E0,1.325087240E0,-1.003031958E1,-5.665829176E0,1.159589528E1
5.249412500E0,5.218968876E-3,-1.051942630E1,-3.633025943E0,1.112911652E1
5.259406500E0,7.307869857E-1,-1.005227470E1,-1.283690123E0,1.016022326E1
5.269400500E0,3.320593423E0,-8.598123626E0,1.168261993E0,9.290796879E0
5.279394500E0,6.523060226E0,-6.506914895E0,4.384475600E0,1.020362105E1
5.289388500E0,8.908235385E0,-4.660180297E0,7.905265993E0,1.278933808E1
5.299382500E0,9.545329292E0,-3.038286051E0,1.101890365E1,1.489163292E1
5.309376500E0,9.326158108E0,-1.228366984E0,1.179898420E1,1.508980247E1
5.319370500E0,8.393384539E0,1.404879222E0,8.257384735E0,1.185778193E1
5.329364500E0,6.573498893E0,4.167505015E0,2.627271522E0,8.214714931E0
5.339358500E0,3.456008798E0,5.080546278E0,-5.296548271E-1,6.167372336E0
5.349352500E0,1.359807715E0,2.779414026E0,1.375732899E-1,3.097280381E0
5.359346500E0,2.776163340E-1,1.962793935E0,3.141600212E0,3.714738584E0
5.369340500E0,2.025365684E-1,3.768760868E0,6.081149887E0,7.157161692E0
5.379334500E0,3.432533762E-1,4.536217863E0,6.491478830E0,7.926814794E0
5.389328500E0,-8.388110058E-1,3.853421827E0,4.473433385E0,5.963561849E0
5.399322500E0,-1.283379782E0,2.815370894E0,3.260146662E0,4.494656071E0
5.409316500E0,-1.100019797E0,2.235208257E0,3.282399411E0,4.120721466E0
5.419310500E0,-1.133156918E0,1.639499920E0,3.215771558E0,3.783277851E0
5.429304500E0,-1.446139076E0,1.241513426E0,2.674598885E0,3.284227917E0
5.439298500E0,-2.172492484E0,1.475347234E0,1.327679896E0,2.942636056E0
5.449292500E0,-2.656710498E0,2.031199195E0,-8.468440568E-1,3.449786327E0
5.459286500E0,-2.844405244E0,2.375169111E0,-2.858658709E0,4.680170842E0
5.469280500E0,-2.565307116E0,2.537399232E0,-4.381378330E0,5.675885088E0
5.479274500E0,-1.882190213E0,2.905575306E0,-5.028450510E0,6.104942456E0
5.489268500E0,-1.383187075E0,3.362500125E0,-4.888337190E0,6.092245404E0
5.499262500E0,-1.169686228E0,3.631923158E0,-4.233399920E0,5.699184730E0
5.509256500E0,-9.605519360E-1,3.960089951E0,-3.251184635E0,5.212981294E0
5.519250500E0,-1.095875363E0,4.591398622E0,-2.624322186E0,5.400828738E0
5.529244500E0,-1.742598611E0,5.091044369E0,-2.628073175E0,5.988501590E0
5.539238500E0,-2.548158986E0,4.735392447E0,-2.927996162E0,6.122925556E0
5.549232500E0,-3.485161846E0,3.626264808E0,-2.984094933E0,5.848159721E0
5.559226500E0,-4.959588436E0,1.942746318E0,-2.427810717E0,5.853720662E0
5.569220500E0,-6.600121266E0,2.411916523E-1,-1.377250836E0,6.746598699E0
5.579214542E0,-7.571458976E0,-1.293538881E0,4.571937919E-2,7.681297034E0
5.589208542E0,-8.006922176E0,-2.107082460E0,1.362733954E0,8.390926233E0
5.599202542E0,-7.185287220E0,-2.023252537E0,1.969352172E0,7.720119898E0
5.609196542E0,-5.053454373E0,-7.618255413E-1,2.085721119E0,5.519783678E0
5.619190542E0,-4.019350312E0,2.045312473E0,2.098202586E0,4.974025948E0
5.629184542E0,-5.035263101E0,5.469240523E0,2.426841248E0,7.820231764E0
5.639178542E0,-6.089454687E0,7.713591925E0,1.972438332E0,1.002354587E1
5.649172542E0,-4.054323678E0,7.159423231E0,1.180846370E0,8.311996128E0
5.659166542E0,-2.983961617E0,6.686464761E0,3.807164796E0,8.252717232E0
5.669160542E0,-4.131911260E0,5.608255152E0,7.051715764E0,9.912210234E0
5.679154542E0,-6.068114689E0,2.733823871E0,8.400275483E0,1.071729616E1
5.689148542E0,-6.329838985E0,-5.759586355E-1,8.771001819E0,1.083185408E1
5.699142542E0,-4.541258455E0,-2.176732738E0,8.873411708E0,1.020287357E1
5.709136542E0,-7.302751350E-1,-3.168698840E0,7.877190002E0,8.521976088E0
5.719130542E0,1.362209458E0,-3.982963673E0,6.326303174E0,7.598797673E0
5.729124542E0,2.310607226E0,-4.613271301E0,4.724201168E0,6.995659692E0
5.739118542E0,2.950227568E0,-4.691760231E0,2.850545697E0,6.232340455E0
5.749112542E0,3.016061369E0,-4.777429250E0,1.938796377E-1,5.653144765E0
5.759106542E0,2.392306423E0,-5.184488137E0,-2.395539349E0,6.191983207E0
5.769100542E0,1.545647577E0,-5.661788750E0,-4.469752563E0,7.377232967E0
5.779094542E0,8.750888859E-1,-5.684194111E0,-5.819879335E0,8.182104785E0
5.789088542E0,3.138846027E-1,-5.182918745E0,-6.860707694E0,8.604096718E0
5.799082542E0,2.641363458E-1,-4.590407519E0,-7.697851220E0,8.966522325E0
5.809076542E0,1.105501123E0,-4.080260757E0,-8.279761444E0,9.296510644E0
5.819070542E0,2.711397752E0,-4.104147218E0,-9.045784702E0,1.029669476E1
5.829064542E0,4.740161144E0,-4.572853593E0,-9.116295691E0,1.124664238E1
5.839058542E0,6.725766236E0,-4.864624684E0,-8.118273042E0,1.161063573E1
5.849052542E0,7.536595538E0,-5.120541233E0,-6.551094117E0,1.122216775E1
5.859046542E0,6.913413911E0,-6.025808330E0,-5.253699290E0,1.056915390E1
5.869040542E0,5.113991182E0,-7.547881833E0,-4.829811823E0,1.031748556E1
5.879034542E0,2.955271376E0,-8.557033487E0,-4.540046620E0,1.012760951E1
5.889028542E0,1.893159882E0,-8.809209280E0,-4.419535505E0,1.003586153E1
5.899022542E0,2.294395967E0,-8.296195044E0,-4.081344246E0,9.526199448E0
5.909016542E0,4.122869125E0,-7.100835299E0,-3.595701411E0,8.963759279E0
5.919010542E0,6.747687448E0,-5.868070917E0,-2.580449942E0,9.307215700E0
5.929004542E0,7.828780904E0,-3.653152352E0,4.155610317E-1,8.649163169E0
5.938998542E0,7.233602763E0,-1.210806919E0,3.635089425E0,8.185654369E0
5.948992542E0,6.797784637E0,4.359809706E-1,4.767652413E0,8.314473219E0
5.958986542E0,6.050934985E0,2.647088613E0,3.856401860E0,7.648053845E0
5.968980542E0,4.871408916E0,5.144054056E0,1.373578200E0,7.216552780E0
5.978974542E0,2.860134546E0,5.531518632E0,-3.770477611E-1,6.238608259E0
5.988968542E0,2.187236969E0,2.133084735E0,1.318245998E0,3.327435733E0
5.998962542E0,2.247744834E0,1.514034167E-1,5.230960638E0,5.695456876E0
6.008956542E0,2.999052403E0,5.731455401E-2,9.714855861E0,1.016740009E1
6.018950542E0,3.277718130E0,2.122932507E-1,1.253549247E1,1.295866798E1
6.028944542E0,2.498077292E0,4.588991323E-1,1.222969478E1,1.249065303E1
6.038938542E0,1.219010416E0,5.485139979E-1,1.062295710E1,1.070673020E1
6.048932542E0,-3.582423846E-1,5.452176301E-1,8.899580337E0,8.923459533E0
6.058926542E0,-2.032698568E0,5.078730717E-1,6.766558751E0,7.083510137E0
6.068920542E0,-3.049469728E0,9.494670770E-1,3.869459862E0,5.017317309E0
6.078914542E0,-3.079348415E0,1.928570328E0,8.477819502E-1,3.731019218E0
6.088908542E0,-2.527698117E0,2.931814393E0,-2.233055751E0,4.468929558E0
6.098902542E0,-1.569950505E0,3.574794984E0,-4.852720630E0,6.228386732E0
6.108896542E0,-7.715528230E-1,3.842451573E0,-6.414624197E0,7.517122550E0
6.118890542E0,-1.272129447E0,4.056488317E0,-6.093048971E0,7.429579837E0
6.128884542E0,-2.497060169E0,4.330143857E0,-4.769057499E0,6.908644204E0
6.138878542E0,-3.502196247E0,4.423468927E0,-3.492795094E0,6.635666769E0
6.148872542E0,-4.368646603E0,4.461055122E0,-2.426513804E0,6.698809982E0
6.158866542E0,-5.301074016E0,4.652488284E0,-1.979806409E0,7.325753639E0
6.168860542E0,-6.089340667E0,4.836365967E0,-2.072624525E0,8.047749869E0
6.178854542E0,-6.612890416E0,4.702095185E0,-2.883436870E0,8.611284861E0
6.188848542E0,-7.221169243E0,3.523110860E0,-3.274133787E0,8.676263449E0
6.198842542E0,-7.629552818E0,1.582493806E0,-2.218604942E0,8.101640003E0
6.208836542E0,-8.100765309E0,-3.372391860E-1,-9.835601449E-3,8.107787960E0
6.218830542E0,-8.433813357E0,-2.142401689E0,3.072485538E0,9.228177508E0
6.228824542E0,-7.792526413E0,-3.478361827E0,5.785892978E0,1.031014192E1
6.238818542E0,-6.674154618E0,-3.859710799E0,6.131404951E0,9.850676829E0
6.248812542E0,-5.110868769E0,-3.041730646E0,4.170941716E0,7.264286592E0
6.258806542E0,-5.170893361E0,-2.711321738E-1,3.162363675E0,6.067305400E0
6.268800542E0,-5.532843027E0,3.863796834E0,2.767907583E0,7.294010578E0
6.278794542E0,-3.056661511E0,6.559115328E0,1.452653021E0,7.380743477E0
6.288788542E0,-1.385181561E0,8.283770295E0,1.501216486E0,8.531894819E0
6.298782542E0,-3.550479338E0,1.027773515E1,3.545923480E0,1.143727750E1
6.308776542E0,-5.066695978E0,8.457777586E0,4.605094555E0,1.088174185E1
6.318770542E0,-5.506615341E0,3.254400896E0,6.053294921E0,8.806606446E0
6.328764542E0,-6.156718717E0,-2.877210170E-1,9.734477363E0,1.152163262E1
6.338758542E0,-4.656179632E0,-3.910571051E0,1.179106005E1,1.326656217E1
6.348752542E0,-2.220364808E0,-6.585156487E0,1.171089823E1,1.361761518E1
6.358746542E0,2.308929513E-1,-6.615794143E0,9.796882941E0,1.182374556E1
6.368740542E0,2.275088607E0,-5.221095216E0,5.623391254E0,8.003648706E0
6.378734542E0,3.724678417E0,-4.180437302E0,7.454837430E-1,5.648453891E0
6.388727542E0,4.169216495E0,-3.694505030E0,-3.439183728E0,6.546733408E0
6.398721542E0,3.758828495E0,-3.654382606E0,-6.248281437E0,8.156244528E0
6.408715542E0,2.829869943E0,-3.964663643E0,-7.986069251E0,9.354358544E0
6.418709542E0,2.143170013E0,-4.489392483E0,-9.445899729E0,1.067580649E1
6.428703542E0,2.263236300E0,-5.045589284E0,-1.076910241E1,1.210593972E1
6.438697542E0,2.702958466E0,-5.304384125E0,-1.128997940E1,1.276346780E1
6.448691542E0,3.390754749E0,-5.722950625E0,-1.100306003E1,1.285755466E1
6.458685542E0,4.363799553E0,-6.206575001E0,-9.865794132E0,1.244581109E1
6.468679542E0,5.844478571E0,-6.590502596E0,-8.665204053E0,1.235631076E1
6.478673542E0,6.847112918E0,-6.865947969E0,-7.521928382E0,1.227206598E1
6.488667542E0,6.846027675E0,-7.544232001E0,-6.482471194E0,1.207501405E1
6.498661542E0,5.986026213E0,-8.625561100E0,-5.554106426E0,1.187774862E1
6.508655542E0,4.361702157E0,-9.768942021E0,-4.826345009E0,1.173670653E1
6.518649542E0,2.361952503E0,-1.039842285E1,-4.558670586E0,1.159687436E1
6.528643542E0,1.168681165E0,-1.032813581E1,-4.451193500E0,1.130704774E1
6.538637542E0,8.869988602E-1,-9.406574864E0,-4.168823855E0,1.032712496E1
6.548631542E0,1.603916689E0,-7.454490105E0,-3.599476374E0,8.431974955E0
6.558625542E0,2.515590580E0,-4.481074234E0,-1.885337039E0,5.473821152E0
6.568619542E0,3.780881854E0,-7.119756889E-1,8.615047807E-1,3.942609220E0
6.578613375E0,5.850144523E0,3.103974256E0,2.905781420E0,7.232040707E0
6.588607375E0,7.072925370E0,5.923558069E0,3.005932530E0,9.703115163E0
6.598601375E0,5.515710100E0,6.853843063E0,2.267418668E0,9.085120255E0
6.608595375E0,2.378027815E0,5.339244640E0,2.261880770E0,6.267268482E0
6.618589375E0,1.213482093E0,1.769544335E0,3.512708371E0,4.116181002E0
6.628583375E0,3.461021031E-1,5.321106577E-1,6.453267276E0,6.484411072E0
6.638577375E0,-3.160592553E-1,1.212894375E0,9.423001447E0,9.505996134E0
6.648571375E0,-7.481927580E-1,2.040054657E0,1.027215106E1,1.049946203E1
6.658565375E0,-1.785099975E0,2.408947307E0,8.354594695E0,8.876309006E0
6.668559375E0,-1.439668401E0,2.336978899E0,5.122279610E0,5.811356458E0
6.678553375E0,1.677994479E0,3.262743410E0,2.121233599E0,4.238017463E0
6.688547375E0,3.820826231E0,4.533363837E0,1.819290984E-1,5.931542713E0
6.698541375E0,4.584221165E0,4.191142677E0,-1.833792078E-1,6.214047679E0
6.708535375E0,3.417614518E0,2.833336757E0,1.829951043E0,4.801729583E0
6.718529375E0,2.021959425E0,1.543553543E0,4.498334337E0,5.167774112E0
6.728523375E0,5.758529471E-1,6.440636413E-1,6.449127447E0,6.506740307E0
6.738517375E0,-7.369067547E-1,2.987810254E-2,6.833784190E0,6.873465692E0
6.748511375E0,-2.117599408E0,-4.925899118E-2,5.984014186E0,6.347840537E0
6.758505375E0,-3.034140375E0,3.995748903E-1,4.522712549E0,5.460823812E0
6.768499375E0,-3.693666832E0,1.522325373E0,2.351002861E0,4.635500368E0
6.778493375E0,-4.265885881E0,3.335168193E0,-6.070438957E-1,5.448819277E0
6.788487375E0,-4.650632086E0,5.772260195E0,-3.201175153E0,8.074335200E0
6.798481375E0,-4.962141330E0,7.499418356E0,-5.012210453E0,1.029496847E1
6.808475375E0,-5.787444829E0,7.419869910E0,-5.316962655E0,1.080828752E1
6.818469375E0,-7.245213579E0,5.605347331E0,-4.014918122E0,1.000163017E1
6.828463375E0,-8.508320918E0,2.517975074E0,-1.555428361E0,9.008389462E0
6.838457375E0,-9.367717777E0,-4.927485175E-1,2.029118317E0,9.597617340E0
6.848451375E0,-9.377435850E0,-2.800185383E0,5.509206827E0,1.123070350E1
6.858445375E0,-8.233398871E0,-3.631340191E0,7.788478970E0,1.190108790E1
6.868439375E0,-6.522816982E0,-3.077064785E0,7.499573307E0,1.040476184E1
6.878433375E0,-5.464322430E0,-1.262798606E0,5.520780805E0,7.869720493E0
6.888427375E0,-4.737193097E0,1.404002725E0,3.135909702E0,5.852021167E0
6.898421375E0,-2.849733519E0,4.152982286E0,9.676966488E-1,5.128808809E0
6.908415375E0,7.961831226E-1,6.328380690E0,-4.684555292E-1,6.395448405E0
6.918409375E0,1.454230892E0,7.870468628E0,2.310540714E0,8.330525932E0
6.928403375E0,-1.628282621E0,7.012000891E0,5.770199051E0,9.225760559E0
6.938397375E0,-3.893768784E0,1.863262045E0,6.482736073E0,7.788391861E0
6.948391375E0,-6.464448906E0,-2.886995778E0,7.009972492E0,9.963109887E0
6.958385375E0,-7.250542147E0,-4.710528624E0,8.187283051E0,1.190760451E1
6.968378375E0,-4.211224355E0,-5.093362205E0,7.740508997E0,1.017802676E1
6.978373375E0,-3.136868206E-1,-4.535533446E0,5.929449724E0,7.471802801E0
6.988366375E0,3.508245192E0,-3.588044775E0,3.514902831E0,6.126694994E0
6.998360375E0,6.406433417E0,-2.169831562E0,8.660737950E-1,6.819137919E0
7.008354375E0,7.241166136E0,-1.290153050E0,-1.918545130E0,7.601302344E0
7.018348375E0,6.104111903E0,-1.352656277E0,-4.252488740E0,7.561317452E0
7.028342375E0,3.948180342E0,-2.393584625E0,-6.049470842E0,7.610090199E0
7.038336375E0,2.165803415E0,-3.782173212E0,-7.173885149E0,8.394055442E0
7.048330375E0,1.525169166E0,-4.796154958E0,-7.676518824E0,9.179225709E0
7.058324375E0,1.743115797E0,-5.220062013E0,-7.775233857E0,9.525847030E0
7.068318375E0,2.550779708E0,-4.986773311E0,-7.245940388E0,9.158495361E0
7.078312375E0,3.720555838E0,-5.009507870E0,-6.793236673E0,9.224194780E0
7.088306375E0,5.025368443E0,-5.710044651E0,-6.469062359E0,9.985374590E0
7.098300375E0,5.805829060E0,-6.651726453E0,-5.605164313E0,1.045805827E1
7.108294375E0,6.103322529E0,-7.608872970E0,-4.544657149E0,1.076101307E1
7.118288375E0,5.728791994E0,-8.628877641E0,-3.185306979E0,1.083617864E1
7.128282375E0,4.752992274E0,-9.683425323E0,-2.679908742E0,1.111492566E1
7.138276375E0,3.897762140E0,-1.049717648E1,-3.596414187E0,1.176084430E1
7.148270375E0,2.989128509E0,-1.050667820E1,-4.573147708E0,1.184224878E1
7.158264375E0,2.305389317E0,-9.417723166E0,-5.366455827E0,1.108184000E1
7.168258375E0,2.257332952E0,-7.649428673E0,-5.918953972E0,9.931934716E0
7.178252375E0,2.689193535E0,-6.056766998E0,-5.404966174E0,8.551599130E0
7.188246375E0,3.326409064E0,-5.127478369E0,-2.550677674E0,6.622838386E0
7.198240375E0,3.675529938E0,-3.934932013E0,2.390151139E0,5.891182627E0
7.208234375E0,3.897254017E0,-1.839799508E0,7.412018269E0,8.573882780E0
7.218228375E0,4.687277463E0,6.896059960E-1,8.788586150E0,9.984256255E0
7.228222375E0,4.402983207E0,3.519671236E0,5.446676118E0,7.838407202E0
7.238216375E0,1.174057680E0,6.488124282E0,1.671240068E0,6.802000552E0
7.248210375E0,-1.117845838E0,5.950352350E0,-1.597225428E-1,6.056548828E0
7.258204375E0,-8.849974313E-1,3.489716535E0,1.208238822E0,3.797523271E0
7.268198375E0,6.081016570E-2,3.081295538E0,4.864446051E0,5.758551506E0
7.278192375E0,1.312300111E0,3.733808844E0,7.651571093E0,8.614522637E0
7.288186375E0,8.538421507E-1,4.197726642E0,8.426654611E0,9.452960558E0
7.298180375E0,-4.197483690E-1,3.895039092E0,7.027781357E0,8.045944880E0
7.308174375E0,-1.473143418E0,4.224856845E0,4.690924664E0,6.482618383E0
7.318168375E0,-1.672151795E0,4.243527590E0,2.602611474E0,5.251400244E0
7.328162375E0,-1.628223711E0,3.967719105E0,1.085524476E0,4.424055915E0
7.338156375E0,-1.400510621E0,3.771889129E0,-7.959276724E-1,4.101472718E0
7.348150375E0,-1.066020504E0,3.903926567E0,-3.111543769E0,5.104776879E0
7.358144375E0,-9.555297625E-1,4.254513046E0,-5.006321722E0,6.639064360E0
7.368138375E0,-3.831838292E-1,4.166794579E0,-6.295988284E0,7.559661063E0
7.378132375E0,-4.731667770E-1,3.537104417E0,-5.674804067E0,6.703610643E0
7.388126375E0,-1.373779783E0,2.609961132E0,-3.010576388E0,4.214586361E0
7.398119375E0,-2.342514604E0,1.422282583E0,-3.062251157E-1,2.757541702E0
7.408113375E0,-3.080347412E0,9.851412320E-1,2.111542423E0,3.862338001E0
7.418107375E0,-3.655309097E0,1.514306355E0,3.266455808E0,5.130705787E0
7.428101375E0,-4.581500748E0,2.540798804E0,2.299447961E0,5.721299554E0
7.438095375E0,-5.820554688E0,3.553606721E0,4.340598679E-1,6.833402196E0
7.448089375E0,-6.639149677E0,4.074744494E0,-1.306592497E0,7.898672994E0
7.458083375E0,-7.191249626E0,3.554790782E0,-1.627436821E0,8.185301417E0
7.468077375E0,-7.914480035E0,1.834629984E0,-3.222529185E-1,8.130726189E0
7.478071375E0,-8.630918319E0,-4.935713670E-1,1.732412469E0,8.816893823E0
7.488065375E0,-8.675944219E0,-2.664719430E0,4.613340299E0,1.018114171E1
7.498059375E0,-7.432491125E0,-3.634130482E0,7.110803048E0,1.090927810E1
7.508053375E0,-5.081502882E0,-3.139597540E0,7.954599536E0,9.947582522E0
7.518047375E0,-3.265436638E0,-1.070785107E0,7.155057700E0,7.937537897E0
7.528041375E0,-2.550518045E0,1.694622791E0,5.051313708E0,5.907000836E0
7.538035375E0,-1.112332498E0,3.961028721E0,1.910602857E0,4.536235818E0
7.548029375E0,-2.226033537E-1,6.654663509E0,-3.037494045E-1,6.665310373E0
7.558023375E0,-1.601546959E0,8.829423689E0,3.984164107E-1,8.982338837E0
7.568017375E0,-4.244088045E0,7.395883462E0,1.544085347E0,8.665770311E0
7.578011292E0,-5.096018595E0,3.300476955E0,4.077542971E0,7.313611306E0
7.588005292E0,-4.949893752E0,-2.146425158E-1,7.993119823E0,9.404120590E0
7.597999292E0,-3.824083714E0,-2.208513232E0,1.002949746E1,1.095864801E1
7.607993292E0,-2.154838863E0,-3.352561321E0,8.786139091E0,9.647758188E0
7.617987292E0,5.803467516E-1,-3.798669669E0,5.976337962E0,7.105160733E0
7.627981292E0,3.200393381E0,-2.716226090E0,2.862452967E0,5.080751810E0
7.637975292E0,5.426829498E0,-1.100451541E0,-8.848994905E-1,5.607541271E0
7.647969292E0,6.545714679E0,-2.600464377E-1,-4.028400047E0,7.690384369E0
7.657963292E0,6.165364995E0,-7.387407339E-1,-6.110419879E0,8.711756108E0
7.667957292E0,4.817748725E0,-2.372637852E0,-7.211131913E0,8.991136559E0
7.677951292E0,3.475797822E0,-4.345034084E0,-7.462818294E0,9.308821009E0
7.687945292E0,2.058130009E0,-6.210504330E0,-6.276127047E0,9.066202837E0
7.697939292E0,1.021285430E0,-8.004889684E0,-4.030265894E0,9.020217622E0
7.707933292E0,8.677341118E-1,-9.101462474E0,-2.085232877E0,9.377514479E0
7.717926292E0,1.241120785E0,-9.073492903E0,-1.588290297E0,9.294693127E0
7.727920292E0,2.501224263E0,-8.494477635E0,-2.890564626E0,9.314914759E0
7.737914292E0,4.490863935E0,-7.272023063E0,-5.152143679E0,9.979717571E0
7.747908292E0,6.156497108E0,-5.876892611E0,-7.263193767E0,1.118902619E1
7.757902292E0,6.330189233E0,-5.638554838E0,-8.422548112E0,1.195005912E1
7.767896292E0,5.111874490E0,-6.431903304E0,-8.421155305E0,1.176505408E1
7.777890292E0,4.086306193E0,-7.678858294E0,-7.976651140E0,1.180210686E1
7.787884292E0,3.208879737E0,-8.678671360E0,-6.973516856E0,1.158646551E1
7.797878292E0,2.203216532E0,-9.077984149E0,-5.259041306E0,1.072014341E1
7.807872292E0,1.245425067E0,-8.779165117E0,-3.794861670E0,9.644988275E0
7.817866292E0,9.173223013E-1,-7.829329373E0,-2.744039834E0,8.346833725E0
7.827860292E0,2.195758847E0,-6.578795886E0,-1.837684570E0,7.174886536E0
7.837854292E0,4.391233812E0,-4.296674687E0,-1.716315669E-1,6.146039794E0
7.847848292E0,6.060585814E0,-7.065737388E-1,2.284872022E0,6.515411500E0
7.857842292E0,7.546654503E0,2.626435662E0,3.979823134E0,8.926877990E0
7.867836292E0,7.614438935E0,5.208826003E0,2.330783774E0,9.515466443E0
7.877830292E0,5.314579915E0,7.394974805E0,-7.650526196E-1,9.138693427E0
7.887824292E0,1.835683068E0,7.622315134E0,-1.803245639E0,8.044943453E0
7.897818292E0,-3.774446408E-1,4.538902904E0,-1.250725275E-1,4.556286555E0
7.907812292E0,-1.796119345E0,2.249476779E0,3.104506060E0,4.233692048E0
7.917806292E0,-1.692844945E0,2.196375875E0,7.128830599E0,7.649184054E0
7.927800292E0,-6.415382288E-2,2.331389253E0,1.120055442E1,1.144080027E1
7.937794292E0,3.839634092E-1,2.437703036E0,1.281059461E1,1.304611659E1
7.947788292E0,8.207315612E-1,2.325897256E0,1.201959029E1,1.227004275E1
7.957782292E0,6.901170427E-1,2.605181910E0,9.871631992E0,1.023290538E1
7.967776292E0,-9.805473670E-1,2.867844100E0,5.322908689E0,6.125304876E0
7.977770292E0,-2.263714164E0,3.022468163E0,2.135906017E-1,3.782239622E0
7.987764292E0,-2.666072183E0,3.661127077E0,-3.685536278E0,5.839089828E0
7.997758292E0,-2.498059750E0,4.247796642E0,-6.412375358E0,8.087189657E0
8.007752292E0,-2.226963683E0,4.533398043E0,-7.408397673E0,8.966349377E0
8.017745292E0,-2.026391322E0,4.417326135E0,-6.322515348E0,7.974536494E0
8.027739292E0,-2.065034840E0,3.998327817E0,-3.644813930E0,5.790998429E0
8.037733292E0,-2.327103098E0,3.333247090E0,-4.384914726E-1,4.088791969E0
8.047727292E0,-3.029866937E0,2.652901622E0,1.923961991E0,4.463139077E0
8.057721292E0,-4.443952016E0,2.627114524E0,3.109974377E0,6.026805196E0
8.067715292E0,-6.213301054E0,3.284543877E0,2.687052870E0,7.524200395E0
8.077709292E0,-7.770923874E0,3.807841904E0,1.243180613E0,8.742563460E0
8.087703292E0,-8.543103080E0,3.727523672E0,1.021742463E-2,9.320898421E0
8.097697292E0,-8.662137773E0,3.060073946E0,4.951112312E-1,9.200098830E0
8.107691292E0,-8.543792467E0,1.771853400E0,2.195534753E0,8.997567840E0
8.117685292E0,-8.035893960E0,-3.680208296E-1,4.544095817E0,9.239038795E0
8.127679292E0,-7.162673113E0,-2.437878453E0,7.963356911E0,1.098463430E1
8.137673292E0,-6.127525324E0,-3.349127251E0,1.064670732E1,1.273246232E1
8.147667292E0,-5.062666662E0,-3.113070185E0,1.051497423E1,1.207834769E1
8.157661292E0,-4.622849918E0,-1.383197454E0,8.276007532E0,9.579993592E0
8.167655292E0,-2.793494414E0,1.258359985E0,4.547432823E0,5.483267837E0
8.177649292E0,1.281572992E0,4.312751899E0,-3.033377606E-1,4.509353842E0
8.187643292E0,4.213655042E0,7.927070845E0,-2.379374721E0,9.287344349E0
8.197637292E0,1.760968516E0,9.159952172E0,-6.525773335E-1,9.350486142E0
8.207631292E0,-3.571848280E0,6.294673246E0,2.738976145E-1,7.242653609E0
8.217625292E0,-6.009297547E0,6.040536296E-1,1.509147064E0,6.225276111E0
8.227619292E0,-7.182427347E0,-3.241649288E0,5.722153650E0,9.738510928E0
8.237613292E0,-6.114667881E0,-5.518137279E0,9.580314937E0,1.263413775E1
8.247607292E0,-3.399253677E0,-6.691517340E0,1.083174714E1,1.317793899E1
8.257601292E0,6.039922339E-1,-6.618737047E0,8.965631654E0,1.116042283E1
8.267595292E0,3.775269404E0,-4.732480826E0,6.269940693E0,8.715571704E0
8.277589292E0,5.235588709E0,-2.494916872E0,2.920464363E0,6.493466826E0
8.287582292E0,4.961763015E0,-1.393465750E0,-8.508201635E-1,5.223479106E0
8.297576292E0,3.969789312E0,-1.226244153E0,-4.116673708E0,5.848923347E0
8.307570292E0,3.014380002E0,-1.579716233E0,-6.245282400E0,7.112351399E0
8.317564292E0,2.092336074E0,-2.106522004E0,-7.730702632E0,8.281247997E0
8.327558292E0,1.529433102E0,-2.568712242E0,-8.770907094E0,9.266404882E0
8.337552292E0,1.427092210E0,-3.489989015E0,-8.989460812E0,9.748180404E0
8.347546292E0,1.476181047E0,-4.595795143E0,-8.225713291E0,9.537442143E0
8.357540292E0,1.633888639E0,-5.713597419E0,-6.927632001E0,9.127259868E0
8.367534292E0,2.309850157E0,-6.827522407E0,-5.572759629E0,9.110769443E0
8.377528292E0,3.447441458E0,-7.712486801E0,-4.796679161E0,9.714702066E0
8.387522292E0,4.550691768E0,-8.071218159E0,-4.477381425E0,1.029078727E1
8.397516292E0,5.247822838E0,-8.101897915E0,-4.305176246E0,1.056952870E1
8.407510292E0,4.663480757E0,-8.221139599E0,-4.017417807E0,1.027009420E1
8.417504292E0,3.456582702E0,-8.657162962E0,-4.052251425E0,1.016440732E1
8.427498292E0,2.623146019E0,-9.058281956E0,-3.933947634E0,1.021808744E1
8.437492292E0,2.192189268E0,-8.581522211E0,-3.512392622E0,9.528122542E0
8.447486292E0,2.334905184E0,-7.590691638E0,-2.637681320E0,8.368258152E0
8.457480292E0,2.102547652E0,-6.575409179E0,-1.264225911E0,7.018189200E0
8.467474292E0,1.417023012E0,-5.185503214E0,3.308278602E-1,5.385800300E0
8.477468292E0,1.190424475E0,-2.378778597E0,2.687007846E0,3.780966703E0
8.487462292E0,2.827051877E0,1.343403351E0,4.037929255E0,5.108994769E0
8.497456292E0,5.307196051E0,4.488299638E0,2.904654661E0,7.533138939E0
8.507450292E0,6.012364996E0,6.240340333E0,1.828927195E0,8.856373694E0
8.517444292E0,3.221572873E0,5.491549405E0,2.078033200E0,6.697303086E0
8.527437292E0,5.626736885E-1,2.080315368E0,2.597734897E0,3.375283737E0
8.537431292E0,-9.693367928E-1,2.838878748E-1,4.148304806E0,4.269501014E0
8.547425292E0,-1.447591817E0,1.440383223E0,6.607826142E0,6.916183357E0
8.557419292E0,-7.126710691E-2,2.730880675E0,9.297784494E0,9.690798974E0
8.567413292E0,9.889055964E-1,3.032859835E0,1.025039240E1,1.073530239E1
8.577407292E0,5.603686430E-1,3.033113604E0,8.736700298E0,9.265188786E0
8.587401750E0,-2.920022204E-1,3.132923821E0,5.605921528E0,6.428594958E0
8.597395750E0,-8.832632934E-1,2.874649674E0,2.318717460E0,3.797395878E0
8.607389750E0,-1.148863051E0,2.597475573E0,-4.012224895E-1,2.868404634E0
8.617383750E0,-1.132353730E0,2.210338733E0,-2.684683578E0,3.657232314E0
8.627377750E0,-1.206174024E0,1.771312240E0,-4.750135324E0,5.211159988E0
8.637371750E0,-1.203946454E0,1.398753825E0,-5.771986545E0,6.059853794E0
8.647365750E0,-1.330360552E0,8.239212173E-1,-5.422480924E0,5.643758034E0
8.657359750E0,-1.624966958E0,2.431063230E-1,-4.089343237E0,4.407079125E0
8.667353750E0,-2.000015263E0,1.774103701E-2,-2.303738063E0,3.050833470E0
8.677347750E0,-1.793938041E0,2.483797807E-1,-1.059342983E0,2.098121486E0
8.687341750E0,-1.482486684E0,1.410026819E0,-2.831461555E-1,2.065457369E0
8.697335750E0,-1.638783343E0,3.424466286E0,-7.070909250E-1,3.861678102E0
8.707329750E0,-2.515573331E0,5.163588434E0,-2.015114236E0,6.086989411E0
8.717323750E0,-3.607974425E0,6.099015470E0,-3.523747330E0,7.914054864E0
8.727317750E0,-4.487014713E0,5.918651671E0,-4.449518858E0,8.658057328E0
8.737311750E0,-5.672313153E0,4.835021108E0,-4.104676976E0,8.508874114E0
8.747305750E0,-6.520533645E0,3.296061430E0,-2.890881545E0,7.857389902E0
8.757298750E0,-6.802740737E0,1.801481534E0,-8.692628664E-1,7.090714716E0
8.767292750E0,-6.692143577E0,7.951763052E-1,1.562884730E0,6.918070518E0
8.777286750E0,-5.723454655E0,-2.946148843E-2,2.883721045E0,6.408950634E0
8.787280750E0,-4.648772964E0,1.955013630E-1,3.451554097E0,5.793318266E0
8.797274750E0,-3.604019660E0,2.430177962E0,3.909819683E0,5.846487201E0
8.807268750E0,-2.252388400E0,4.995042443E0,2.885889777E0,6.192904191E0
8.817262750E0,9.195101101E-2,6.598663555E0,6.031303543E-1,6.626807824E0
8.827256750E0,1.330530413E0,7.747549045E0,3.101760793E-1,7.867085648E0
8.837250750E0,-6.791515399E-1,7.615054062E0,2.853854052E0,8.160562366E0
8.847244750E0,-4.952736669E0,4.593532563E0,6.476368455E0,9.358070863E0
8.857238750E0,-7.439015449E0,-8.364731428E-1,9.367493244E0,1.199118709E1
8.867232750E0,-8.377359660E0,-4.489235485E0,1.182578316E1,1.517176777E1
8.877226750E0,-6.869446943E0,-6.075096264E0,1.264828876E1,1.562290961E1
8.887220750E0,-3.862334153E0,-6.666228132E0,1.145274015E1,1.380295185E1
8.897214750E0,-7.447575188E-1,-6.188916410E0,9.167062386E0,1.108568369E1
8.907208750E0,2.581537232E0,-4.849978578E0,6.047596225E0,8.170682149E0
8.917202750E0,5.172252254E0,-3.677760066E0,2.214482655E0,6.721759138E0
8.927196750E0,5.385156977E0,-3.528851949E0,-8.814578193E-1,6.498436707E0
8.937190750E0,3.615010379E0,-4.457032237E0,-3.204682898E0,6.572931529E0
8.947184750E0,1.839590178E0,-5.480302870E0,-5.001625239E0,7.644217854E0
8.957178750E0,1.359372974E0,-5.895715967E0,-6.089470475E0,8.584230444E0
8.967172750E0,1.765260226E0,-5.629677011E0,-6.958793567E0,9.123278732E0
8.977166750E0,2.518045533E0,-5.067547917E0,-7.867950232E0,9.691503292E0
8.987159750E0,3.735798652E0,-4.678890510E0,-8.769362260E0,1.061837664E1
8.997153750E0,5.174854850E0,-4.217242309E0,-9.307266923E0,1.145379732E1
9.007147750E0,6.305419258E0,-4.074526685E0,-9.110763055E0,1.180534130E1
9.017141750E0,6.468396361E0,-4.627985235E0,-8.425188130E0,1.158629336E1
9.027135750E0,5.938701773E0,-5.787634279E0,-7.604453060E0,1.125133750E1
9.037129750E0,5.275257390E0,-7.306251494E0,-6.688542861E0,1.122257800E1
9.047123750E0,4.632810065E0,-8.372425194E0,-5.871887394E0,1.122673124E1
9.057117750E0,4.163138315E0,-9.072194821E0,-5.998387227E0,1.164547504E1
9.067111750E0,3.834019888E0,-9.023776367E0,-6.599048302E0,1.181844689E1
9.077105750E0,3.716586748E0,-7.956553091E0,-7.222392481E0,1.137025537E1
9.087099750E0,4.121407321E0,-6.371861170E0,-7.431305895E0,1.062124853E1
9.097093750E0,4.462959852E0,-4.914147384E0,-6.731259695E0,9.453925758E0
9.107087750E0,3.860405741E0,-3.626750711E0,-4.216237757E0,6.769986265E0
9.117081750E0,2.385518829E0,-1.562267556E0,-4.597490251E-2,2.851928066E0
9.127075750E0,2.574454207E0,1.140159690E0,3.665031847E0,4.621713646E0
9.137069750E0,4.480703813E0,4.222567661E0,3.962568001E0,7.321798240E0
9.147063750E0,5.940334316E0,6.384118688E0,2.151960717E0,8.981952913E0
9.157057750E0,4.150275902E0,7.102066723E0,2.515869784E0,8.601961554E0
9.167051750E0,2.758591507E0,3.300355040E0,5.123353744E0,6.689613148E0
9.177045750E0,1.995891076E0,-5.168333450E-1,8.839670935E0,9.076920190E0
9.187039750E0,1.420537189E0,-1.401654775E0,1.392679533E1,1.406905079E1
9.197032750E0,1.060033540E0,-7.729535235E-1,1.822166644E1,1.826883292E1
9.207026750E0,7.184853941E-1,2.830911916E-1,1.774349050E1,1.776028764E1
9.217020750E0,-1.543715364E-1,1.445153674E0,1.430352442E1,1.437717324E1
9.227014750E0,-9.746385363E-1,2.628527796E0,1.060861973E1,1.097277956E1
9.237008750E0,-1.280197873E0,3.582974946E0,7.619133664E0,8.516326312E0
9.247002750E0,-1.757953545E0,4.064729675E0,5.140081458E0,6.784752420E0
9.256996750E0,-2.181676852E0,4.004736950E0,2.513681756E0,5.207324447E0
9.266990750E0,-2.581912916E0,3.797019877E0,-2.688783646E-2,4.591770596E0
9.276984750E0,-2.758040991E0,3.765475318E0,-2.508356112E0,5.298815421E0
9.286978750E0,-2.334478484E0,3.614914777E0,-4.449865013E0,6.190209792E0
9.296972750E0,-1.864661723E0,3.717850331E0,-5.529166297E0,6.918891123E0
9.306966750E0,-1.431963964E0,3.981945089E0,-5.547369264E0,6.977084867E0
9.316960750E0,-1.056642008E0,4.063905218E0,-4.941135208E0,6.484337676E0
9.326954750E0,-9.051919600E-1,4.036465697E0,-4.408048650E0,6.045107171E0
9.336948750E0,-1.267461761E0,4.118342503E0,-4.054007344E0,5.916264010E0
9.346942750E0,-2.327115670E0,4.352159793E0,-3.945264335E0,6.318375810E0
9.356936750E0,-3.634684213E0,4.014795331E0,-4.188444187E0,6.846354912E0
9.366930750E0,-5.008165934E0,2.948384818E0,-4.156505526E0,7.145014853E0
9.376924750E0,-6.194133296E0,1.458415159E0,-3.801732148E0,7.412653330E0
9.386918750E0,-6.921109432E0,-1.413707641E-1,-3.198073205E0,7.625576286E0
9.396911750E0,-7.228829681E0,-1.416571022E0,-2.610150290E0,7.815083912E0
9.406905750E0,-6.976158044E0,-1.950906107E0,-1.796393287E0,7.463232847E0
9.416899750E0,-5.916563045E0,-1.807790680E0,-6.442900747E-1,6.220043015E0
9.426893750E0,-4.575769014E0,-1.478672838E0,8.226710826E-1,4.878618979E0
9.436887750E0,-3.978772974E0,-3.657804689E-1,2.597803894E0,4.765817328E0
9.446881750E0,-4.295924782E0,2.279330615E0,4.539503413E0,6.652624221E0
9.456875750E0,-4.365660137E0,4.824757783E0,4.079257960E0,7.679688900E0
9.466869750E0,-1.189197583E0,5.226727254E0,9.366058338E-1,5.441516256E0
9.476863750E0,4.881581244E-1,5.945016181E0,1.219832096E0,6.088473215E0
9.486857750E0,-1.755203307E0,6.401712960E0,5.676372875E0,8.734064145E0
9.496851750E0,-3.968371070E0,3.551940557E0,9.131846361E0,1.057141753E1
9.506845750E0,-5.907959452E0,-5.864672515E-1,1.184817098E1,1.325243692E1
9.516839750E0,-6.534216129E0,-3.503614489E0,1.370565597E1,1.558256399E1
9.526833750E0,-4.326748671E0,-4.575085475E0,1.344936666E1,1.485050924E1
9.536827750E0,-1.142712584E0,-4.095145429E0,1.148545650E1,1.224711064E1
9.546821750E0,1.483052549E0,-3.173169037E0,8.092835315E0,8.818300859E0
9.556815750E0,3.346077928E0,-2.400365056E0,4.185177348E0,5.871430774E0
9.566809750E0,4.591256534E0,-1.960188416E0,7.392459333E-1,5.046628552E0
9.576803750E0,4.768568087E0,-1.674046732E0,-2.328622059E0,5.564544433E0
9.586797500E0,3.969009586E0,-1.654247182E0,-5.248191213E0,6.784768370E0
9.596790500E0,2.876994408E0,-2.104528396E0,-7.423458347E0,8.234917754E0
9.606784500E0,1.437541330E0,-2.872076607E0,-8.404042844E0,8.996848628E0
9.616778500E0,6.042657374E-1,-3.691366830E0,-8.193876371E0,9.007271293E0
9.626772500E0,5.960176915E-1,-4.274872759E0,-7.714544436E0,8.839907808E0
9.636766500E0,1.401301311E0,-4.330913351E0,-7.628772215E0,8.883615329E0
9.646760500E0,2.653896233E0,-4.141221489E0,-7.946040967E0,9.345183127E0
9.656754500E0,3.839216309E0,-4.647371678E0,-8.435144184E0,1.036770480E1
9.666748500E0,4.620101726E0,-5.726912699E0,-8.838801454E0,1.150075129E1
9.676742500E0,5.649479776E0,-6.788435524E0,-9.173072155E0,1.273360638E1
9.686736500E0,7.039722540E0,-7.513594930E0,-8.554674720E0,1.338634610E1
9.696730500E0,6.959970612E0,-8.712169474E0,-6.992620295E0,1.316206011E1
9.706724500E0,5.164725133E0,-1.021632302E1,-5.559280627E0,1.272608513E1
9.716718500E0,2.549929816E0,-1.098532192E1,-3.960592226E0,1.195264534E1
9.726712500E0,3.445871261E-1,-1.104144934E1,-1.847832997E0,1.120030494E1
9.736706500E0,-9.057698111E-1,-1.014664058E1,5.961224663E-1,1.020441551E1
9.746700500E0,1.090910639E-1,-8.117699431E0,2.760986819E0,8.575079773E0
9.756694500E0,2.989852394E0,-4.775227188E0,4.019901119E0,6.921099410E0
9.766688500E0,6.223477548E0,1.810321355E-1,3.769201164E0,7.278140067E0
9.776681500E0,7.616616438E0,5.219677266E0,3.041166097E0,9.721448861E0
9.786675500E0,5.438975335E0,7.147758620E0,3.347243278E0,9.585246139E0
9.796669500E0,2.645736736E0,3.551090957E0,3.373322445E0,5.566819036E0
9.806663500E0,1.245302129E0,-7.549351823E-1,3.842042268E0,4.108770292E0
9.816657500E0,1.040520248E-1,-1.580947072E0,7.323797234E0,7.493212021E0
9.826651500E0,3.453283703E-1,-1.482069339E0,1.131172636E1,1.141362933E1
9.836645500E0,1.119298688E-3,-5.889521720E-1,1.171975677E1,1.173454578E1
9.846639500E0,-1.739223013E0,8.865494286E-1,9.371698562E0,9.572857489E0
9.856633500E0,-3.201698771E0,2.564578845E0,6.682016784E0,7.840745371E0
9.866627500E0,-3.749772035E0,4.245008982E0,4.140088883E0,7.015784171E0
9.876621500E0,-3.322282684E0,4.995082204E0,1.728131722E0,6.242983879E0
9.886615500E0,-2.428877833E0,5.356571694E0,-3.898777217E-1,5.894430632E0
9.896609500E0,-1.248909422E0,5.663458130E0,-2.789722960E0,6.435610843E0
9.906603500E0,-4.603035970E-1,6.009757723E0,-4.656749443E0,7.616717315E0
9.916597500E0,2.442981318E-2,5.932739367E0,-5.930556602E0,8.388652742E0
9.926591500E0,3.141738572E-1,5.234277179E0,-6.505092317E0,8.355392801E0
9.936585500E0,-2.635819566E-1,4.594392981E0,-5.808956736E0,7.410931161E0
9.946579500E0,-1.455728948E0,4.269118806E0,-3.488627783E0,5.702196591E0
9.956572500E0,-2.171221884E0,4.474710417E0,-5.588949984E-1,5.004957682E0
9.966566500E0,-2.860894684E0,5.014391465E0,1.286754649E0,5.914776216E0
9.976560500E0,-3.924253535E0,6.113606611E0,1.199283811E0,7.363031527E0
9.986554500E0,-4.772238676E0,7.389557945E0,-3.872955912E-1,8.805102298E0
9.996548500E0,-4.960071416E0,7.807608721E0,-2.406157308E0,9.557753678E0
1.000654250E1,-5.081840851E0,6.792398182E0,-3.540801904E0,9.192336897E0
1.001653650E1,-5.517239147E0,4.755576451E0,-3.156912900E0,7.938610347E0
1.002653050E1,-6.357376447E0,2.121229652E0,-1.225196332E0,6.812999088E0
1.003652450E1,-7.577460558E0,-9.170509905E-1,2.439226236E0,8.013034111E0
1.004651850E1,-8.631329378E0,-3.435158504E0,6.067073300E0,1.109547382E1
1.005651250E1,-8.893773467E0,-4.467393211E0,7.174875668E0,1.226929702E1
1.006650650E1,-7.946828002E0,-2.551692459E0,5.118670124E0,9.791015960E0
1.007650050E1,-4.771512452E0,1.390002736E0,8.152281618E-1,5.036271998E0
1.008649450E1,4.046741740E-1,6.289665105E0,-3.998645321E0,7.464101602E0
1.009648850E1,2.782850727E0,1.110114474E1,-3.887160553E0,1.208675680E1
1.010648250E1,2.715322330E-1,1.114280030E1,6.307754052E-1,1.116394222E1
1.011647650E1,-1.007702421E0,3.312204715E0,3.331448194E0,4.804655172E0
1.012646950E1,-4.555416903E0,-3.255696346E0,6.101436802E0,8.281238609E0
1.013646350E1,-7.331247171E0,-6.281229912E0,9.532830284E0,1.356745693E1
1.014645750E1,-6.449726202E0,-8.836547352E0,1.176150121E1,1.606289039E1
1.015645150E1,-4.068531827E0,-9.186102090E0,1.282947644E1,1.629517991E1
1.016644550E1,-9.961478115E-1,-7.345570511E0,1.076116306E1,1.306722415E1
1.017643950E1,2.138656547E0,-5.035370690E0,4.965780637E0,7.388354834E0
1.018643350E1,5.080150421E0,-2.513580015E0,-5.649872124E-1,5.696070869E0
1.019642750E1,6.401652149E0,-5.431621876E-1,-4.261440827E0,7.709478149E0
1.020642150E1,5.163745140E0,-2.555231778E-1,-6.545619369E0,8.341144339E0
1.021641550E1,2.911292713E0,-1.431951100E0,-7.621035179E0,8.282891187E0
1.022640950E1,1.348469671E0,-2.847044092E0,-6.960673447E0,7.640353745E0
1.023640350E1,8.304043177E-1,-3.508636078E0,-5.115826623E0,6.258736334E0
1.024639750E1,1.195784910E0,-3.595000915E0,-3.540031825E0,5.185147872E0
1.025639150E1,2.342888680E0,-3.358635701E0,-2.722879345E0,4.917685743E0
1.026638550E1,4.037991528E0,-3.239646909E0,-2.865843183E0,5.917241318E0
1.027637950E1,5.885968659E0,-3.039969757E0,-3.557906179E0,7.519623631E0
1.028637350E1,6.572101994E0,-2.673701630E0,-4.211174653E0,8.250769478E0
1.029636650E1,5.614285385E0,-3.085792047E0,-5.133988659E0,8.209759588E0
1.030636050E1,4.333734340E0,-4.400095852E0,-5.780177325E0,8.458873846E0
1.031635450E1,3.659704449E0,-5.585629351E0,-5.685280523E0,8.770125799E0
1.032634850E1,3.518669900E0,-6.874331707E0,-5.089701848E0,9.248920974E0
1.033634250E1,3.558595273E0,-7.917890716E0,-4.133258750E0,9.614594199E0
1.034633650E1,3.501117436E0,-8.138413777E0,-3.582518279E0,9.556465838E0
1.035633050E1,3.445985793E0,-7.788419913E0,-3.624065085E0,9.255709080E0
1.036632450E1,2.921676783E0,-6.347761286E0,-2.611567655E0,7.459929905E0
1.037631850E1,2.741262406E0,-4.270829409E0,-1.214587728E0,5.218211070E0
1.038631250E1,4.401412645E0,-2.215994014E0,-9.586129993E-1,5.020159522E0
1.039630650E1,5.710403670E0,1.340209894E0,-5.903302145E-1,5.895198249E0
1.040630050E1,6.705869915E0,3.886340189E0,-3.729769295E-1,7.759603287E0
1.041629450E1,5.072682942E0,3.932541671E0,2.283127213E-1,6.422548009E0
1.042628850E1,2.625431695E0,1.045150768E0,1.611530641E0,3.253038998E0
1.043628250E1,1.391972225E0,-2.664922328E0,4.603186024E0,5.498065047E0
1.044627650E1,1.960845497E-1,-4.534395871E0,8.838293915E0,9.935523861E0
1.045626950E1,-7.933519739E-1,-5.199482737E0,1.365010509E1,1.462837643E1
1.046626350E1,-1.610864350E0,-4.166419187E0,1.673546795E1,1.732136889E1
1.047625750E1,-2.555589628E0,-1.888286959E0,1.564530838E1,1.596472174E1
1.048625150E1,-3.048871558E0,7.440472282E-1,1.132141286E1,1.174834513E1
1.049624550E1,-2.364421636E0,3.333703465E0,6.476825708E0,7.658546841E0
1.050623950E1,-9.043656023E-1,5.355692273E0,2.315429571E0,5.904450098E0
1.051623350E1,4.488612903E-1,6.568278499E0,-9.181824267E-1,6.647316592E0
1.052622750E1,1.007233475E0,6.852085390E0,-3.009260765E0,7.551241210E0
1.053622150E1,9.605468197E-1,6.383968415E0,-4.258209071E0,7.733695585E0
1.054621550E1,6.288236046E-1,5.566608358E0,-4.872909311E0,7.424809283E0
1.055620950E1,1.670128330E-1,4.589172587E0,-4.857460383E0,6.684558301E0
1.056620350E1,-6.806313971E-1,3.798213001E0,-4.185006024E0,5.692447323E0
1.057619750E1,-1.751145778E0,3.578637482E0,-3.171403470E0,5.092244862E0
1.058619225E1,-2.646068273E0,3.981059235E0,-2.524758722E0,5.406007450E0
1.059618625E1,-3.526804839E0,4.833535623E0,-2.591804066E0,6.520649301E0
1.060618025E1,-4.087163980E0,5.588386313E0,-3.218263641E0,7.634932340E0
1.061617325E1,-4.446030993E0,5.889867582E0,-3.813438274E0,8.306626463E0
1.062616725E1,-4.847060232E0,5.368531004E0,-4.126089479E0,8.327048242E0
1.063616125E1,-5.420489362E0,4.051108879E0,-3.925197861E0,7.823066299E0
1.064615525E1,-6.258713454E0,2.272462330E0,-2.842569510E0,7.239874347E0
1.065614925E1,-7.285259405E0,4.257264161E-1,-5.930708045E-1,7.321747097E0
1.066614325E1,-7.986254023E0,-1.073786922E0,1.764279209E0,8.248997078E0
1.067613725E1,-7.814645845E0,-2.176886082E0,3.050411130E0,8.666748569E0
1.068613125E1,-7.618213313E0,-2.365546348E0,3.611008837E0,8.756275945E0
1.069612525E1,-7.403529282E0,-1.101117831E0,3.656777333E0,8.330469781E0
1.070611925E1,-5.822998824E0,5.184176481E-1,2.839835352E0,6.499287422E0
1.071611325E1,-1.958752778E0,2.385844665E0,1.988517591E0,3.671943548E0
1.072610725E1,8.210243605E-1,5.218724170E0,4.054679189E0,6.659548505E0
1.073610125E1,-9.598702969E-1,6.638203597E0,6.695767681E0,9.477362651E0
1.074609525E1,-4.257218845E0,3.777334641E0,6.885097600E0,8.932902006E0
1.075608925E1,-6.234866754E0,-1.660010198E0,6.429407712E0,9.108593790E0
1.076608225E1,-8.845369046E0,-4.436758187E0,7.929519074E0,1.268079846E1
1.077607625E1,-8.073153588E0,-6.485079637E0,9.691273456E0,1.418283639E1
1.078607025E1,-5.284979555E0,-7.675540584E0,1.017790096E1,1.379980435E1
1.079606425E1,-2.418424328E0,-7.405858812E0,9.793212644E0,1.251409345E1
1.080605825E1,2.835445336E-1,-6.566788044E0,7.711484004E0,1.013262494E1
1.081605225E1,2.503904627E0,-5.358897132E0,3.875099502E0,7.071330355E0
1.082604625E1,3.781175969E0,-4.344071632E0,1.275862455E-2,5.759202448E0
1.083604025E1,4.116701190E0,-3.645565005E0,-3.434382579E0,6.483236583E0
1.084603425E1,3.535861591E0,-3.512241763E0,-5.928604217E0,7.745095697E0
1.085602825E1,2.826913590E0,-3.964732932E0,-7.395236176E0,8.854381162E0
1.086602225E1,2.521047201E0,-4.603933298E0,-7.944194416E0,9.521665071E0
1.087601625E1,2.548028301E0,-4.799643991E0,-7.983519280E0,9.657412219E0
1.088601025E1,3.140619341E0,-4.524039282E0,-8.035109848E0,9.741324938E0
1.089600425E1,4.065851464E0,-4.291620938E0,-8.255102566E0,1.015361398E1
1.090599825E1,5.224506481E0,-4.075831784E0,-8.563858357E0,1.082809044E1
1.091599125E1,6.141636409E0,-3.670169503E0,-8.729704104E0,1.128705346E1
1.092598525E1,6.396910642E0,-3.639659024E0,-8.733157470E0,1.142084160E1
1.093597925E1,5.964682122E0,-4.235509011E0,-8.557841572E0,1.125849110E1
1.094597325E1,5.338345923E0,-5.470400611E0,-8.054634871E0,1.110406966E1
1.095596725E1,4.892513271E0,-6.553856342E0,-7.331959947E0,1.098395902E1
1.096596125E1,4.880198450E0,-6.922917976E0,-6.850957462E0,1.089397762E1
1.097595525E1,4.914395891E0,-6.737219762E0,-6.910657534E0,1.083044804E1
1.098594925E1,4.743175383E0,-6.258487751E0,-6.902316481E0,1.045506358E1
1.099594325E1,4.833509018E0,-5.829857023E0,-6.579144965E0,1.003170927E1
1.100593725E1,4.712894408E0,-5.194823676E0,-5.404535235E0,8.854748321E0
1.101593125E1,3.950490577E0,-3.693461595E0,-2.955133089E0,6.162860206E0
1.102592525E1,4.745653726E0,-1.690892852E0,-1.073238891E-1,5.039034266E0
1.103591925E1,6.476768990E0,1.179662017E0,1.791799130E0,6.822806105E0
1.104591325E1,8.039071922E0,4.096202314E0,1.653169248E0,9.172705125E0
1.105590725E1,7.956171852E0,4.466945607E0,1.571469612E0,9.258714292E0
1.106590025E1,4.880280603E0,1.753712121E0,4.416406075E0,6.811555446E0
1.107589425E1,3.012451590E0,-3.563596981E0,7.767549446E0,9.061396826E0
1.108588825E1,1.011662083E0,-5.967447270E0,1.159886324E1,1.308310038E1
1.109588225E1,-3.416015013E-1,-5.502714078E0,1.675507951E1,1.763885606E1
1.110587625E1,7.478998125E-2,-4.291405761E0,1.965134108E1,2.011459577E1
1.111587025E1,-7.670176495E-1,-1.777951754E0,1.797238795E1,1.807639779E1
1.112586425E1,-2.441085650E0,7.322175801E-1,1.373700523E1,1.397141205E1
1.113585825E1,-3.185857787E0,2.665643874E0,9.371015607E0,1.025042831E1
1.114585225E1,-3.006234246E0,4.101932293E0,6.280573270E0,8.081391803E0
1.115584625E1,-2.482514343E0,5.183003529E0,3.892309611E0,6.940927687E0
1.116584025E1,-2.130958980E0,5.773912033E0,1.406215603E0,6.313199559E0
1.117583425E1,-2.081158390E0,6.011821790E0,-7.947652459E-1,6.411308234E0
1.118582825E1,-1.932648322E0,5.803149866E0,-2.538615453E0,6.622404875E0
1.119582225E1,-1.701285401E0,5.029122355E0,-3.858053114E0,6.562851324E0
1.120581525E1,-1.933857965E0,4.430957456E0,-4.140972397E0,6.365598401E0
1.121580925E1,-2.208690111E0,4.021100383E0,-4.099130892E0,6.152270667E0
1.122580325E1,-2.929501235E0,3.721188799E0,-4.039830769E0,6.224906120E0
1.123579725E1,-4.844610541E0,3.469998846E0,-4.040439464E0,7.199742659E0
1.124579125E1,-6.876912668E0,3.565607547E0,-4.932066761E0,9.183178510E0
1.125578525E1,-8.467489811E0,3.712750390E0,-6.137151010E0,1.109718530E1
1.126577925E1,-9.755686968E0,3.580545136E0,-7.274287689E0,1.268499086E1
1.127577325E1,-1.018525208E1,3.269776441E0,-7.276317843E0,1.293737219E1
1.128576725E1,-8.926378711E0,2.960476275E0,-5.894970447E0,1.109933932E1
1.129576125E1,-7.498738909E0,2.761711581E0,-3.361945517E0,8.669533652E0
1.130575525E1,-6.153275877E0,1.674865196E0,1.337860483E-1,6.378548122E0
1.131574925E1,-4.734891340E0,-7.886943743E-2,4.351828256E0,6.431471493E0
1.132574325E1,-4.311743839E0,-1.064794927E0,6.931280079E0,8.232105848E0
1.133573725E1,-5.588209727E0,-3.077348667E-1,6.930669045E0,8.908252472E0
1.134573125E1,-6.579258986E0,1.058464147E0,4.184242963E0,7.868601167E0
1.135572425E1,-5.340576636E0,2.365593126E0,4.904580170E-1,5.861598648E0
1.136571825E1,-2.624431529E0,4.538424310E0,-7.223580050E-1,5.292139185E0
1.137571225E1,-2.960099714E0,6.826924236E0,3.182036047E0,8.092863415E0
1.138570625E1,-4.707314702E0,4.939882734E0,6.723408639E0,9.579429882E0
1.139570025E1,-5.080507686E0,-5.977649492E-1,8.618659047E0,1.002248298E1
1.140569425E1,-6.651030634E0,-3.466517414E0,1.237002094E1,1.446618020E1
1.141568825E1,-6.933831219E0,-5.639631311E0,1.510195470E1,1.754857522E1
1.142568225E1,-5.553687766E0,-6.649896274E0,1.559302960E1,1.783836148E1
1.143567625E1,-2.749191815E0,-5.544725738E0,1.349507669E1,1.484651925E1
1.144567025E1,3.942568476E-1,-3.945182767E0,9.214847002E0,1.003161556E1
1.145566425E1,2.756674497E0,-2.196476739E0,4.755127677E0,5.919037385E0
1.146565825E1,4.135734169E0,-6.711176848E-1,8.266834420E-1,4.270609041E0
1.147565225E1,4.278395706E0,-2.730649710E-3,-2.558162110E0,4.984864156E0
1.148564625E1,4.005373127E0,-4.918025842E-1,-5.020333405E0,6.441166911E0
1.149563925E1,4.027007533E0,-1.430851677E0,-6.094420143E0,7.443526252E0
1.150563325E1,3.725641454E0,-2.486902678E0,-6.373948041E0,7.790526478E0
1.151562725E1,3.237798604E0,-3.665341750E0,-6.734256393E0,8.322756701E0
1.152562125E1,2.980813768E0,-4.491022979E0,-7.068938153E0,8.889568310E0
1.153561525E1,3.267894807E0,-4.920375254E0,-7.466621908E0,9.520486953E0
1.154560925E1,3.566577015E0,-5.297220116E0,-7.836774048E0,1.010920571E1
1.155560325E1,3.657406201E0,-5.957056768E0,-7.836948295E0,1.050147152E1
1.156559725E1,3.635940780E0,-6.741180666E0,-7.640285382E0,1.081838911E1
1.157559125E1,3.957714812E0,-7.662610052E0,-7.355838806E0,1.133523109E1
1.158558437E1,4.526993588E0,-8.556180378E0,-7.092434020E0,1.200018808E1
1.159557837E1,5.127854930E0,-9.184412245E0,-6.897719400E0,1.257882576E1
1.160557237E1,5.068991010E0,-9.508268470E0,-6.772291362E0,1.272657729E1
1.161556637E1,4.452049240E0,-9.834384059E0,-7.031844002E0,1.288342665E1
1.162556037E1,3.101145081E0,-9.620663649E0,-7.012139470E0,1.230220996E1
1.163555337E1,1.778966099E0,-8.872359209E0,-6.049416463E0,1.088480215E1
1.164554737E1,1.455151682E0,-7.709676045E0,-4.054930034E0,8.831705878E0
1.165554137E1,1.949949064E0,-5.820445345E0,-1.175829459E0,6.249996823E0
1.166553537E1,4.017761331E0,-3.591684959E0,1.034268368E0,5.487469181E0
1.167552937E1,6.058107179E0,-2.693546203E-1,2.374369504E0,6.512360943E0
1.168552337E1,7.296476119E0,3.562891807E0,2.477611452E0,8.489482922E0
1.169551737E1,6.840614907E0,5.071361471E0,2.612782121E0,8.907263884E0
1.170551137E1,4.530157224E0,3.423694161E0,3.289261118E0,6.562259130E0
1.171550537E1,2.874523082E0,4.968306050E-1,3.634307653E0,4.660248461E0
1.172549937E1,8.464242268E-1,-5.659172121E-1,5.468033073E0,5.562021391E0
1.173549337E1,-5.903449787E-1,-7.595237848E-1,9.477708582E0,9.526402444E0
1.174548737E1,-8.091111702E-1,1.458120167E-1,1.187383090E1,1.190225954E1
1.175548137E1,-1.233477159E0,2.372473691E0,1.115980634E1,1.147568625E1
1.176547437E1,-2.018895923E0,4.103516303E0,8.783599645E0,9.902848556E0
1.177546837E1,-1.918537675E0,5.210701205E0,6.487469394E0,8.539288788E0
1.178546237E1,-4.407046072E-1,6.135658801E0,4.955380195E0,7.899134278E0
1.179545637E1,7.475155042E-1,6.546132170E0,3.612788145E0,7.514177533E0
1.180545037E1,6.569324858E-1,6.241776409E0,1.555586820E0,6.466156771E0
1.181544437E1,7.574110396E-2,5.467852979E0,-8.616293263E-1,5.535843026E0
1.182543837E1,-6.333674759E-1,4.459395974E0,-2.496409081E0,5.149701459E0
1.183543237E1,-1.056594353E0,3.545471490E0,-3.770528482E0,5.282390060E0
1.184542637E1,-1.304627394E0,3.036699409E0,-4.869199837E0,5.884955649E0
1.185542037E1,-1.830630197E0,3.024635434E0,-5.402916141E0,6.456866829E0
1.186541437E1,-2.595859110E0,3.149511202E0,-5.285789394E0,6.678134085E0
1.187540837E1,-3.666875474E0,3.539305601E0,-4.472577353E0,6.780605287E0
1.188540237E1,-5.136402975E0,4.352802695E0,-3.739727688E0,7.701629049E0
1.189539637E1,-6.375773542E0,4.833630932E0,-3.518405313E0,8.740346229E0
1.190538937E1,-7.001078292E0,4.444193506E0,-3.298667534E0,8.924525795E0
1.191538337E1,-6.902704736E0,3.577588491E0,-2.029421788E0,8.035236454E0
1.192537737E1,-6.556035599E0,2.559251739E0,-1.336392832E-1,7.039121515E0
1.193537137E1,-6.535507194E0,1.328492805E0,1.078037701E0,6.755731841E0
1.194536537E1,-6.436382271E0,1.825187901E-1,2.038794875E0,6.754036896E0
1.195535937E1,-5.943281897E0,-5.742430624E-1,2.616668181E0,6.519149268E0
1.196535337E1,-5.375631863E0,-6.908631474E-1,2.871443646E0,6.133506210E0
1.197534737E1,-5.330290799E0,-2.151702270E-1,3.280255821E0,6.262457703E0
1.198534137E1,-5.078321412E0,1.940035987E-1,4.012957551E0,6.475400688E0
1.199533537E1,-3.272942124E0,1.128429883E0,4.276161777E0,5.501914548E0
1.200532937E1,-1.224102610E0,2.792686914E0,4.804864678E0,5.690716297E0
1.201532337E1,-2.296698892E0,3.985319224E0,6.430768944E0,7.906477366E0
1.202531737E1,-5.330874935E0,3.242207697E0,7.100412546E0,9.452301130E0
1.203531037E1,-7.012334182E0,-2.808911768E-1,5.961640400E0,9.208305316E0
1.204530437E1,-8.352189150E0,-1.954171338E0,5.020333990E0,9.938893429E0
1.205529837E1,-6.757879145E0,-1.783132972E0,4.596833609E0,8.365367473E0
1.206529237E1,-3.530352345E0,-1.652871332E0,4.103347903E0,5.659755766E0
1.207528637E1,-1.039167020E0,-2.102235995E0,3.710971667E0,4.389826304E0
1.208528037E1,5.578388086E-1,-2.543178620E0,2.992096263E0,3.966305798E0
1.209527437E1,1.957504544E0,-2.804614064E0,1.798701183E0,3.864325301E0
1.210526837E1,3.038662612E0,-3.103545071E0,1.966734374E-1,4.347889478E0
1.211526237E1,2.892009473E0,-3.306287333E0,-1.773129555E0,4.737007825E0
1.212525637E1,2.166043882E0,-3.558238008E0,-3.509592390E0,5.447021440E0
1.213525037E1,1.622054021E0,-3.582844554E0,-4.566134557E0,6.026393543E0
1.214524437E1,1.354227570E0,-3.749476751E0,-4.830618739E0,6.263176959E0
1.215523837E1,1.310258994E0,-4.143257197E0,-4.540186368E0,6.284636114E0
1.216523137E1,1.651742527E0,-4.650651674E0,-4.443021432E0,6.640576316E0
1.217522537E1,2.342173566E0,-5.144155798E0,-4.807783608E0,7.420437932E0
1.218521937E1,3.290411558E0,-5.364339720E0,-5.451031124E0,8.325664488E0
1.219521337E1,4.022804262E0,-5.516566717E0,-5.976796383E0,9.074004490E0
1.220520737E1,4.253102113E0,-5.918893161E0,-6.416790590E0,9.710683566E0
1.221520137E1,4.296782568E0,-6.371218561E0,-6.920691356E0,1.034169886E1
1.222519537E1,4.052335917E0,-6.814289573E0,-7.011705607E0,1.058394937E1
1.223518937E1,3.720563439E0,-7.289604471E0,-6.415366209E0,1.039893500E1
1.224518337E1,3.602601126E0,-7.724868865E0,-5.373208777E0,1.007589730E1
1.225517737E1,3.575620903E0,-8.126537497E0,-4.181115872E0,9.813633704E0
1.226517137E1,3.558992299E0,-8.188433783E0,-2.935633795E0,9.398660531E0
1.227516537E1,3.961770440E0,-7.730790925E0,-1.676701952E0,8.847151111E0
1.228515837E1,4.584229935E0,-6.878429435E0,-2.238314152E-1,8.269102497E0
1.229515237E1,5.424217547E0,-5.922532468E0,1.617735121E0,8.192410741E0
1.230514637E1,6.152155550E0,-4.155703288E0,3.813338286E0,8.346282802E0
1.231514037E1,6.193798835E0,-1.383437482E0,5.353992487E0,8.303148730E0
1.232513437E1,6.272074342E0,1.990388115E0,4.460278904E0,7.949506230E0
1.233512837E1,6.384318663E0,5.422543489E0,5.323714435E-1,8.393266470E0
1.234512237E1,5.139548777E0,7.822622616E0,-4.912484436E0,1.057075634E1
1.235511637E1,1.490654514E0,8.115107360E0,-8.135371470E0,1.158711730E1
1.236511037E1,-1.086839296E0,5.470925106E0,-7.802613444E0,9.591299064E0
1.237510437E1,-1.410384814E0,3.838993530E0,-4.343270856E0,5.965824199E0
1.238509837E1,2.134579064E-1,3.268844980E0,1.545682222E-1,3.279451649E0
1.239509237E1,1.553208904E0,1.818566075E0,5.307959113E0,5.821861421E0
1.240508537E1,1.661560003E0,3.498706336E-1,9.604515393E0,9.753456159E0
1.241507937E1,5.229127317E-1,-2.508953990E-1,1.142731880E1,1.144202784E1
1.242507337E1,-1.257517401E0,-5.017229703E-1,1.021990853E1,1.030920008E1
1.243506737E1,-2.887272351E0,-5.628162874E-1,7.063030127E0,7.651110924E0
1.244506137E1,-3.601534594E0,1.294988698E-1,3.386454706E0,4.945290372E0
1.245505537E1,-3.048050609E0,1.176016132E0,4.958234221E-1,3.304461729E0
1.246504937E1,-1.707772448E0,1.931242652E0,-9.712985337E-1,2.754923911E0
1.247504337E1,-8.141473771E-1,2.178177147E0,-9.961117780E-1,2.529729296E0
1.248503737E1,-6.842246573E-1,1.889452017E0,-4.264386070E-1,2.054274127E0
1.249503137E1,-1.342412540E0,1.479904262E0,5.090001225E-1,2.061860610E0
1.250502537E1,-1.959864480E0,1.258363347E0,1.210979996E0,2.625075169E0
1.251501937E1,-2.109575420E0,1.716385543E0,1.718563923E0,3.217102694E0
1.252501238E1,-2.150485757E0,3.059936829E0,1.762376525E0,4.134461682E0
1.253500637E1,-2.391307865E0,4.708307267E0,9.392394197E-1,5.363644406E0
1.254500037E1,-2.952578149E0,6.087328640E0,-5.943957835E-1,6.791656207E0
1.255499437E1,-3.866489477E0,6.599695589E0,-2.236776919E0,7.969246748E0
1.256498838E1,-4.897341025E0,6.033361763E0,-2.856357245E0,8.279141259E0
1.257498237E1,-5.816829427E0,4.483195311E0,-2.121115485E0,7.644192284E0
1.258497717E1,-6.411626329E0,2.468845307E0,-8.687214142E-1,6.925231132E0
1.259497117E1,-6.989249375E0,7.397984952E-1,8.856409174E-1,7.083873832E0
1.260496517E1,-6.933906648E0,-4.160671082E-1,2.501432424E0,7.383043913E0
1.261495917E1,-5.471508073E0,-1.301743401E0,3.310077206E0,6.525990161E0
1.262495317E1,-4.104008346E0,-1.412847808E0,3.825734383E0,5.785781452E0
1.263494717E1,-3.438907447E0,-8.627388355E-1,4.179560512E0,5.480796366E0
1.264494017E1,-4.106131763E0,7.047801054E-1,4.951670721E0,6.471172690E0
1.265493417E1,-4.297885061E0,2.572872536E0,5.598938198E0,7.512629235E0
1.266492817E1,-2.587918591E0,3.384380991E0,6.191450009E0,7.515677650E0
1.267492217E1,-1.023663054E0,3.799930621E0,6.515949427E0,7.612158414E0
1.268491617E1,-2.855175815E0,4.724490313E0,6.168821869E0,8.278115782E0
1.269491017E1,-4.957592196E0,4.270875017E0,3.571208010E0,7.454637513E0
1.270490417E1,-6.342038031E0,3.495883593E0,1.805808474E0,7.463483954E0
1.271489817E1,-4.622599949E0,1.562251477E0,1.958570491E0,5.257856820E0
1.272489217E1,-2.268906638E0,-1.267737749E0,3.345569220E0,4.236499704E0
1.273488617E1,-4.341871910E-1,-3.194733860E0,4.120660340E0,5.232082242E0
1.274488017E1,1.039557540E0,-3.938651427E0,3.556744337E0,5.407780064E0
1.275487417E1,2.232565316E0,-4.216604085E0,1.079694217E0,4.891813314E0
1.276486717E1,3.071949056E0,-4.678830283E0,-1.873960111E0,5.902546088E0
1.277486117E1,3.487415655E0,-5.019980233E0,-4.473126406E0,7.574373198E0
1.278485517E1,3.262395209E0,-5.003649545E0,-6.220462723E0,8.624029670E0
1.279484917E1,3.092376012E0,-4.883683975E0,-7.234098022E0,9.259877578E0
1.280484317E1,3.337348035E0,-4.617438320E0,-8.228764953E0,1.000855640E1
1.281483717E1,3.609890850E0,-4.004202515E0,-9.093916057E0,1.057186166E1
1.282483117E1,3.870394247E0,-3.514111411E0,-9.458663616E0,1.080718502E1
1.283482517E1,4.162390164E0,-3.721942797E0,-9.121000945E0,1.069443819E1
1.284481917E1,4.572431131E0,-4.535324993E0,-8.156315027E0,1.039239020E1
1.285481317E1,5.093218948E0,-5.753980629E0,-6.418371677E0,1.001222589E1
1.286480717E1,6.159738219E0,-7.287650916E0,-4.107987669E0,1.038883023E1
1.287480017E1,6.439505269E0,-8.861355919E0,-2.334278070E0,1.119998710E1
1.288479417E1,5.657945375E0,-9.975762717E0,-1.893606756E0,1.162385195E1
1.289478817E1,4.580632144E0,-1.031588823E1,-2.459243009E0,1.155195296E1
1.290478217E1,3.303667488E0,-9.938318317E0,-3.448940392E0,1.102631306E1
1.291477617E1,2.158062579E0,-8.986850030E0,-4.084239787E0,1.010453968E1
1.292477017E1,1.728797574E0,-7.722716505E0,-3.813885001E0,8.784919468E0
1.293476417E1,1.343512986E0,-6.157107557E0,-2.651212946E0,6.836953320E0
1.294475817E1,8.229931911E-1,-4.174203001E0,-1.322833723E0,4.455466030E0
1.295475217E1,2.302773272E0,-1.673991475E0,-2.497082680E-1,2.857860462E0
1.296474617E1,5.466091797E0,2.027366492E0,7.219989860E-1,5.874492060E0
1.297474017E1,7.215672276E0,5.885407326E0,8.933902323E-2,9.311923929E0
1.298473317E1,5.918397902E0,7.142720075E0,-9.501193339E-1,9.324623882E0
1.299472717E1,4.713897205E0,3.232449571E0,-1.075729221E0,5.816076895E0
1.300472117E1,3.584641988E0,-5.021555181E-1,1.273243487E0,3.837051905E0
1.301471517E1,3.228027029E0,-2.246729172E0,6.705771682E0,7.774015972E0
1.302470917E1,3.331131860E0,-3.516362881E0,1.262280075E1,1.352021990E1
1.303470317E1,1.510798318E0,-3.013573671E0,1.479179382E1,1.517106794E1
1.304469717E1,-9.121255153E-1,-1.457619938E0,1.293311950E1,1.304692335E1
1.305469117E1,-2.445128123E0,5.496763513E-1,1.029134747E1,1.059210217E1
1.306468517E1,-2.740857486E0,2.346477263E0,8.267312722E0,9.020350046E0
1.307467917E1,-2.733814808E0,3.145450311E0,6.124006469E0,7.407500003E0
1.308467317E1,-2.654114919E0,3.417998388E0,3.186809129E0,5.374271245E0
1.309466617E1,-2.059192448E0,3.908287128E0,-7.300055784E-1,4.477487014E0
1.310466017E1,-1.466804013E0,4.739251024E0,-3.712144033E0,6.196130051E0
1.311465417E1,-7.584033121E-1,4.735360579E0,-4.707099232E0,6.719791558E0
1.312464817E1,-5.923782018E-1,3.937561213E0,-3.636369381E0,5.392446802E0
1.313464217E1,-1.247621573E0,2.992868096E0,-8.888182944E-1,3.362114958E0
1.314463617E1,-2.742959268E0,2.124148143E0,2.492283286E0,4.271686653E0
1.315463017E1,-4.756540949E0,1.558823839E0,4.877995804E0,6.989238630E0
1.316462417E1,-6.331869138E0,1.703590812E0,5.494990491E0,8.555098418E0
1.317461817E1,-7.321422679E0,3.064005321E0,4.739578176E0,9.244185197E0
1.318461217E1,-7.740080397E0,4.869883962E0,2.862164115E0,9.582097775E0
1.319460617E1,-7.668007032E0,6.232819644E0,5.789649814E-1,9.898564189E0
1.320459917E1,-7.158838509E0,6.663320312E0,-8.555815512E-1,9.817373690E0
1.321459317E1,-6.801473061E0,5.856289946E0,-8.183926749E-1,9.012543165E0
1.322458717E1,-7.244362224E0,3.887972732E0,1.390929812E-1,8.222923012E0
1.323458117E1,-8.042446935E0,1.576211265E0,1.526052534E0,8.336319991E0
1.324457517E1,-8.867598406E0,-7.925260547E-1,4.324635780E0,9.897720630E0
1.325456917E1,-8.345629744E0,-3.069158765E0,6.691249537E0,1.112843618E1
1.326456317E1,-5.969743472E0,-4.420351776E0,6.759656698E0,1.004342101E1
1.327455717E1,-3.471409195E0,-3.973880609E0,5.494085927E0,7.617571074E0
1.328455117E1,-2.049987761E0,-1.774857115E0,5.003830224E0,5.691299017E0
1.329454517E1,-7.275387112E-1,7.182816187E-1,4.455124583E0,4.570927271E0
1.330453917E1,1.137246095E0,2.931396317E0,2.275653886E0,3.881367499E0
1.331453217E1,8.122185268E-1,5.791130329E0,3.721629971E-1,5.859641177E0
1.332452617E1,-1.897393705E-1,6.682911408E0,-1.180351696E0,6.789001108E0
1.333452017E1,-5.221722183E-1,3.776618357E0,-2.446839895E0,4.530180516E0
1.334451417E1,-2.494473360E0,9.321868005E-1,2.813604158E-1,2.677785141E0
1.335450817E1,-2.173779602E0,-2.963687566E0,4.065036362E0,5.480262984E0
1.336450217E1,-1.777839780E0,-5.765385039E0,7.204632148E0,9.397185925E0
1.337449617E1,-9.421132531E-1,-6.839032651E0,8.204351074E0,1.072246807E1
1.338449017E1,8.814544572E-1,-5.863060437E0,6.166824460E0,8.554657420E0
1.339448417E1,2.413864523E0,-3.703393967E0,2.911504675E0,5.293271983E0
1.340447817E1,3.292103450E0,-2.458446326E0,-7.270001096E-1,4.172581050E0
1.341447217E1,3.436480560E0,-2.076466438E0,-3.082512928E0,5.061916382E0
1.342446517E1,3.102660387E0,-2.431336295E0,-4.060992427E0,5.659466154E0
1.343445917E1,2.742778589E0,-3.168374905E0,-4.787822383E0,6.362757036E0
1.344445317E1,2.511152543E0,-3.594178796E0,-5.659791926E0,7.159417082E0
1.345444717E1,2.215421133E0,-3.776075735E0,-6.636015569E0,7.950065496E0
1.346444117E1,2.035906058E0,-3.930557126E0,-7.529062570E0,8.733898097E0
1.347443517E1,2.169585687E0,-4.422082552E0,-8.185499066E0,9.553235635E0
1.348442917E1,2.438868971E0,-5.101251853E0,-8.584430031E0,1.027926511E1
1.349442317E1,2.653611474E0,-5.842452511E0,-8.429178854E0,1.059372273E1
1.350441717E1,2.845438739E0,-6.708750839E0,-7.697282871E0,1.059962372E1
1.351441117E1,3.185511924E0,-7.761779999E0,-6.714304524E0,1.074591086E1
1.352440517E1,3.964227148E0,-8.727030172E0,-6.477306349E0,1.156856301E1
1.353439817E1,4.617773365E0,-9.214492076E0,-6.432831842E0,1.214956874E1
1.354439217E1,4.387488963E0,-9.534711333E0,-6.402426320E0,1.229438255E1
1.355438617E1,3.821536667E0,-9.727603376E0,-6.624624023E0,1.237400717E1
1.356438017E1,3.039758087E0,-9.282051975E0,-6.485549753E0,1.172428990E1
1.357437417E1,2.140418313E0,-8.559184093E0,-6.094288580E0,1.072293692E1
1.358436775E1,2.248514327E0,-7.731788460E0,-5.234433299E0,9.603939891E0
1.359436175E1,2.984466816E0,-6.197167416E0,-3.649019832E0,7.786351642E0
1.360435575E1,3.706948490E0,-3.980771845E0,-1.368001710E0,5.608871568E0
1.361434975E1,4.374558138E0,-1.185068937E0,2.349410080E0,5.104985309E0
1.362434375E1,6.493324796E0,1.701003273E0,5.109349077E0,8.435764757E0
1.363433675E1,8.299401657E0,4.662661855E0,4.457151813E0,1.051126471E1
1.364433075E1,6.832853313E0,7.493763514E0,1.515019423E0,1.025376320E1
1.365432475E1,3.177718755E0,7.257242471E0,-5.920960736E-1,7.944560562E0
1.366431875E1,9.170478476E-1,3.308221884E0,2.445311433E-1,3.441671726E0
1.367431275E1,-2.243733059E-1,8.474192767E-1,4.900062611E0,4.977858616E0
1.368430675E1,1.413020593E-1,-4.089468075E-1,1.084110736E1,1.084973791E1
1.369430075E1,-4.246847346E-1,-7.856096756E-1,1.400797222E1,1.403641071E1
1.370429475E1,-2.045853926E0,-6.304921807E-1,1.401814755E1,1.418067345E1
1.371428875E1,-2.912799248E0,-2.017494784E-1,1.331660797E1,1.363294356E1
1.372428275E1,-3.142395141E0,5.733909038E-1,1.230978877E1,1.271748104E1
1.373427675E1,-3.567926552E0,1.270889837E0,1.000775283E1,1.070048493E1
1.374426975E1,-3.301331525E0,2.250077142E0,5.635975631E0,6.908390428E0
1.375426375E1,-1.809338730E0,3.550983368E0,1.023553346E0,4.114711530E0
1.376425775E1,5.360032953E-2,4.563312983E0,-2.763019896E0,5.334883065E0
1.377425175E1,8.178811897E-1,4.956681200E0,-4.854981163E0,6.986305193E0
1.378424575E1,3.718731214E-1,4.320609387E0,-4.432392948E0,6.200972693E0
1.379423975E1,-7.429489750E-1,2.962341537E0,-1.924270139E0,3.609744607E0
1.380423375E1,-1.852118422E0,1.342615000E0,1.485356498E0,2.727497317E0
1.381422775E1,-2.902836177E0,1.809878063E-1,4.320365558E0,5.208144873E0
1.382422175E1,-3.623525095E0,-2.720424757E-1,5.082848911E0,6.248143266E0
1.383421575E1,-4.013647522E0,1.594794813E-1,3.856225859E0,5.568238322E0
1.384420875E1,-3.983746031E0,1.371613389E0,1.160078815E0,4.370050181E0
1.385420275E1,-4.046581672E0,2.797296566E0,-1.836290009E0,5.250871576E0
1.386419675E1,-4.499001212E0,3.821099003E0,-4.185796568E0,7.236207737E0
1.387419075E1,-5.654131821E0,4.127641330E0,-5.689381760E0,9.020847766E0
1.388418475E1,-6.959402263E0,3.566097836E0,-6.265807881E0,1.002051306E1
1.389417875E1,-8.180904323E0,2.096958737E0,-5.673808286E0,1.017430744E1
1.390417275E1,-9.286007617E0,5.815843879E-1,-4.144239237E0,1.018542570E1
1.391416675E1,-9.291306948E0,-3.637485614E-1,-1.974981287E0,9.505853402E0
1.392416075E1,-7.668270741E0,-8.031985389E-1,7.094385821E-1,7.742790657E0
1.393415475E1,-5.001676694E0,-1.013217223E0,2.399603164E0,5.639279585E0
1.394414875E1,-3.083744060E0,-2.119679993E-1,3.009488806E0,4.314096746E0
1.395414175E1,-2.822040813E0,3.000043506E0,2.566258165E0,4.852819424E0
1.396413575E1,-1.307391373E0,6.692197956E0,3.604147714E-1,6.828227039E0
1.397412975E1,2.309677665E0,8.132699293E0,-1.190369731E0,8.537703954E0
1.398412375E1,3.341038797E0,8.181044072E0,1.925210956E0,9.044250084E0
1.399411775E1,-1.984525989E-1,6.443053359E0,7.092576107E0,9.584203455E0
1.400411175E1,-6.005706772E0,1.733914618E0,1.167721242E1,1.324508451E1
1.401410575E1,-9.983107989E0,-4.264862033E0,1.475359162E1,1.831720391E1
1.402409975E1,-1.049770156E1,-7.136885723E0,1.679137201E1,2.104963301E1
1.403409375E1,-5.806853492E0,-7.257987406E0,1.700321663E1,1.937801085E1
1.404408775E1,-1.154398756E0,-6.287574141E0,1.430648194E1,1.566976868E1
1.405408075E1,1.405967243E0,-4.416273928E0,9.464314365E0,1.053819082E1
1.406407475E1,3.198372290E0,-1.824275150E0,5.201198310E0,6.372599862E0
1.407406875E1,4.288666633E0,-6.114465567E-1,1.952282395E0,4.751624452E0
1.408406275E1,4.226956581E0,-5.468079266E-1,-8.123425609E-1,4.338900930E0
1.409405675E1,3.735000507E0,-9.117811874E-1,-3.253411254E0,5.036492679E0
1.410405075E1,3.194925357E0,-1.433335282E0,-5.315621889E0,6.365362058E0
1.411404475E1,2.774454126E0,-2.223552563E0,-6.493451096E0,7.403153979E0
1.412403875E1,2.578415696E0,-3.305638000E0,-6.892081515E0,8.066985663E0
1.413403275E1,2.898664189E0,-4.168963603E0,-6.779755332E0,8.470395149E0
1.414402675E1,3.652177036E0,-4.779877771E0,-6.664830648E0,8.978061939E0
1.415401975E1,4.249401703E0,-5.422487941E0,-7.089778799E0,9.885633704E0
1.416401375E1,4.659958979E0,-6.025673844E0,-7.827388097E0,1.092208622E1
1.417400775E1,4.922844533E0,-6.394670573E0,-8.462410920E0,1.169352849E1
1.418400175E1,4.983114123E0,-6.689737448E0,-8.988337562E0,1.226271689E1
1.419399575E1,5.117654462E0,-7.233645447E0,-9.670923391E0,1.311650765E1
1.420398975E1,4.845308114E0,-7.954719404E0,-1.041460444E1,1.397206345E1
1.421398375E1,3.896596498E0,-8.679112240E0,-1.046601784E1,1.414383197E1
1.422397775E1,2.987043099E0,-9.077525142E0,-9.705889741E0,1.362087313E1
1.423397175E1,2.262863394E0,-9.349218357E0,-8.325175014E0,1.272151617E1
1.424396575E1,1.640083179E0,-9.219273344E0,-6.034439405E0,1.113998801E1
1.425395875E1,1.958379726E0,-8.484903404E0,-3.712079129E0,9.466169679E0
1.426395275E1,2.818232814E0,-6.831854024E0,-6.634636796E-1,7.420030300E0
1.427394675E1,4.099942485E0,-4.038476847E0,2.922996207E0,6.454667338E0
1.428394075E1,5.338007954E0,-8.515925807E-1,4.859741966E0,7.268880988E0
1.429393475E1,5.147050754E0,2.874606697E0,4.045289145E0,7.149815340E0
1.430392875E1,4.070914860E0,5.705249349E0,3.070948890E0,7.651989612E0
1.431392275E1,1.997109928E0,6.117296789E0,3.696093426E0,7.420975319E0
1.432391675E1,9.331650397E-1,3.800666785E0,4.145969428E0,5.701309279E0
1.433391075E1,1.593092177E-2,2.796103442E0,5.378400519E0,6.061818242E0
1.434390475E1,-1.074611233E0,3.144894241E0,8.950324228E0,9.547431743E0
1.435389775E1,-7.429476593E-1,2.186900169E0,1.333981323E1,1.353828352E1
1.436389175E1,-4.261485485E-1,4.642300388E-1,1.694182086E1,1.695353669E1
1.437388575E1,-1.523349951E0,-3.463361380E-1,1.661434638E1,1.668763163E1
1.438387975E1,-1.807635436E0,7.221448740E-1,1.154056299E1,1.170357353E1
1.439387375E1,-5.179214387E-1,2.751524854E0,5.578750101E0,6.241921526E0
1.440386775E1,1.131517359E0,4.039745692E0,5.818347949E-1,4.235375842E0
1.441386175E1,2.190722786E0,4.625180033E0,-3.340371630E0,6.111435126E0
1.442385575E1,2.993426212E0,5.023099138E0,-6.015301468E0,8.389039110E0
1.443384975E1,2.985952886E0,4.866664485E0,-7.351473860E0,9.308303054E0
1.444384375E1,2.130164051E0,3.618159397E0,-7.304993758E0,8.425651910E0
1.445383675E1,5.415637051E-1,1.881714104E0,-5.998985397E0,6.310464722E0
1.446383075E1,-1.293087768E0,5.374748933E-1,-4.110184468E0,4.342185118E0
1.447382475E1,-2.742650535E0,-2.946613696E-1,-2.940162463E0,4.031564534E0
1.448381875E1,-4.154214879E0,-3.875473139E-1,-2.364802875E0,4.795830149E0
1.449381275E1,-5.421572267E0,-7.180965543E-3,-2.694158991E0,6.054088708E0
1.450380675E1,-6.401146365E0,8.739824465E-1,-3.749430558E0,7.469722191E0
1.451380075E1,-7.149958928E0,2.341159366E0,-5.123904551E0,9.102600601E0
1.452379475E1,-7.736333501E0,4.027076530E0,-5.722017410E0,1.043118807E1
1.453378875E1,-8.392606859E0,4.689802583E0,-5.654839334E0,1.115380231E1
1.454378275E1,-8.869616280E0,4.087695492E0,-4.638205583E0,1.081167417E1
1.455377575E1,-8.193224407E0,3.127334467E0,-2.710907171E0,9.179224626E0
1.456376975E1,-7.178155956E0,2.092504766E0,-3.464989829E-1,7.484955622E0
1.457376375E1,-6.068638600E0,1.305918898E0,1.732706584E0,6.444848386E0
1.458375787E1,-4.659381275E0,1.655186245E0,3.133557367E0,5.853943725E0
1.459375187E1,-3.748766607E0,2.652021031E0,2.904861653E0,5.433662471E0
1.460374587E1,-3.399211284E0,3.446490701E0,1.163811677E0,4.978693917E0
1.461373987E1,-1.776158559E0,3.609359045E0,-6.510564727E-1,4.075056622E0
1.462373387E1,-1.749936866E0,4.209288634E0,1.798814619E0,4.900624845E0
1.463372787E1,-4.569983779E0,3.472476604E0,7.509969656E0,9.452115623E0
1.464372087E1,-7.158199409E0,3.716197908E-3,1.214049200E1,1.409366448E1
1.465371487E1,-7.896726134E0,-4.879187174E0,1.408576592E1,1.686930801E1
1.466370887E1,-9.470117726E0,-6.665335847E0,1.383505719E1,1.804213511E1
1.467370287E1,-8.165491063E0,-6.210777980E0,1.190818914E1,1.571795076E1
1.468369687E1,-4.462260525E0,-4.189442014E0,9.606735581E0,1.139089820E1
1.469369087E1,1.849056600E-1,-1.958753217E0,7.454124069E0,7.709401397E0
1.470368487E1,3.891627826E0,-3.753278026E-1,5.936364056E0,7.108168281E0
1.471367887E1,5.308401162E0,7.467069805E-1,4.319836970E0,6.884597712E0
1.472367287E1,5.652589910E0,1.203709568E0,1.432206477E0,5.954150217E0
1.473366687E1,5.667349452E0,1.617659692E0,-2.654692039E0,6.463981939E0
1.474365987E1,5.399531187E0,2.004935403E0,-6.315965881E0,8.547872719E0
1.475365387E1,5.030789981E0,1.860985724E0,-8.163020614E0,9.767651778E0
1.476364787E1,4.457534806E0,9.978469393E-1,-8.991054178E0,1.008485847E1
1.477364187E1,3.593824748E0,-1.537501967E-1,-9.169452728E0,9.849775570E0
1.478363587E1,3.774304029E0,-1.122252884E0,-8.650038130E0,9.504103434E0
1.479362987E1,4.467091495E0,-2.389185179E0,-7.270577046E0,8.861399598E0
1.480362387E1,4.814875988E0,-4.012921298E0,-6.276375554E0,8.870144205E0
1.481361787E1,4.839171169E0,-5.181365724E0,-6.195791566E0,9.415517060E0
1.482361187E1,4.392121419E0,-5.884156022E0,-6.812989737E0,1.001652893E1
1.483360487E1,3.798586346E0,-6.306022106E0,-7.709189556E0,1.065958614E1
1.484359887E1,3.468339699E0,-6.661428153E0,-8.164736187E0,1.109355319E1
1.485359287E1,2.892057420E0,-7.127350084E0,-7.810154014E0,1.096182563E1
1.486358687E1,2.217028825E0,-7.760816377E0,-6.689475492E0,1.048306110E1
1.487358087E1,2.054599752E0,-8.617358626E0,-4.636410488E0,9.998827534E0
1.488357487E1,2.027733697E0,-8.920099971E0,-2.235404577E0,9.416842414E0
1.489356887E1,2.214019409E0,-8.555364107E0,1.130488980E-1,8.837924926E0
1.490356287E1,3.090026893E0,-7.873333179E0,3.475611881E0,9.144261561E0
1.491355687E1,4.033233941E0,-6.168169320E0,7.188083358E0,1.029474775E1
1.492355087E1,5.441383218E0,-3.401016027E0,8.860344350E0,1.093989321E1
1.493354387E1,7.253952827E0,-3.067107269E-1,7.047115175E0,1.011808951E1
1.494353787E1,6.997844782E0,3.206285912E0,3.184615254E0,8.330178585E0
1.495353187E1,4.069378504E0,6.063961996E0,-6.219806081E-1,7.329279390E0
1.496352587E1,1.247313425E0,5.555093436E0,-2.729260996E0,6.313772204E0
1.497351987E1,1.694699243E-1,3.295465014E0,-2.166342528E0,3.947385168E0
1.498351387E1,-4.653948773E-1,2.470247761E0,2.694455445E-1,2.528105476E0
1.499350787E1,-8.464178679E-1,1.903570996E0,3.574937949E0,4.137654780E0
1.500350187E1,-3.586181413E-1,7.091345268E-1,7.258817711E0,7.302185516E0
1.501349587E1,1.407801953E0,1.410450742E-1,9.586019481E0,9.689869428E0
1.502348887E1,2.928369799E0,7.270132658E-1,8.539985930E0,9.057331707E0
1.503348287E1,2.285740187E0,1.319622140E0,5.022398057E0,5.673666631E0
1.504347687E1,6.744467971E-1,1.280240266E0,1.932966118E0,2.414591401E0
1.505347087E1,-1.032904359E0,9.871053118E-1,2.092741871E-1,1.443975068E0
1.506346487E1,-2.061216900E0,1.880935255E-1,-1.976171780E-1,2.079193794E0
1.507345887E1,-2.304685020E0,-4.923557308E-1,7.657133549E-1,2.477963710E0
1.508345287E1,-2.217895529E0,-8.367234036E-1,1.421427135E0,2.763986565E0
1.509344687E1,-2.191194949E0,-9.146530473E-1,1.322346066E0,2.717816149E0
1.510344087E1,-2.566290910E0,-7.951002914E-1,8.971757197E-1,2.832482617E0
1.511343387E1,-2.914330049E0,-4.911193371E-1,1.642307460E-1,2.959981347E0
1.512342787E1,-2.914254620E0,-6.156211764E-2,-4.444094396E-1,2.948587736E0
1.513342187E1,-2.679211461E0,6.962493101E-1,-1.173132139E0,3.006522272E0
1.514341587E1,-2.540406748E0,1.665943953E0,-2.270768538E0,3.792812340E0
1.515340987E1,-2.818834493E0,2.414321482E0,-3.435366080E0,5.057323029E0
1.516340387E1,-3.498752822E0,2.684431271E0,-4.706635548E0,6.449795403E0
1.517339787E1,-4.744791261E0,2.562280012E0,-5.628377175E0,7.794674630E0
1.518339187E1,-5.736240177E0,2.209554037E0,-6.397061500E0,8.871807947E0
1.519338587E1,-6.395704361E0,1.597043287E0,-6.110174296E0,8.988315274E0
1.520337987E1,-6.764988189E0,2.857765254E-1,-4.444715370E0,8.099520242E0
1.521337287E1,-7.123257033E0,-1.030008672E0,-1.833776291E0,7.427277031E0
1.522336687E1,-6.764957199E0,-1.469484231E0,9.835531282E-1,6.992239024E0
1.523336087E1,-6.216265007E0,-1.329812083E0,1.735216793E0,6.589486182E0
1.524335487E1,-6.297376413E0,1.133795580E-1,1.802725822E-1,6.300976339E0
1.525334887E1,-5.679798174E0,2.764093737E0,-2.821965092E0,6.918367471E0
1.526334287E1,-2.552515747E0,5.540658415E0,-6.320622019E0,8.784332360E0
1.527333687E1,1.877246977E0,8.330341029E0,-7.817805680E0,1.157742301E1
1.528333087E1,4.872373706E0,8.960203099E0,-4.131123932E0,1.100415604E1
1.529332487E1,2.527917972E0,7.165575671E0,2.391319998E0,7.965817931E0
1.530331787E1,-4.276447414E0,3.305893523E0,8.016537922E0,9.668599419E0
1.531331187E1,-9.615235094E0,-1.500629425E0,1.312009241E1,1.633528265E1
1.532330587E1,-1.133197644E1,-4.839396579E0,1.678260820E1,2.082040795E1
1.533329987E1,-9.623841026E0,-5.832225146E0,2.005512640E1,2.299654890E1
1.534329387E1,-5.950285692E0,-5.552272739E0,1.989608681E1,2.149622997E1
1.535328787E1,-2.157514987E0,-4.096366620E0,1.558409154E1,1.625727528E1
1.536328187E1,1.343361543E0,-1.903630930E0,1.083266866E1,1.108039446E1
1.537327587E1,3.489386752E0,-2.086292392E-1,6.937730727E0,7.768619807E0
1.538326987E1,3.856534592E0,3.954094800E-1,2.979379154E0,4.889366816E0
1.539326387E1,3.692869856E0,2.161610377E-1,-4.376547360E-1,3.724990609E0
1.540325687E1,3.882701467E0,-3.954647362E-2,-2.757858558E0,4.762637760E0
1.541325087E1,3.937934266E0,-5.632809949E-1,-4.014009465E0,5.651272754E0
1.542324487E1,3.531592831E0,-1.387028258E0,-4.755566218E0,6.083699973E0
1.543323887E1,3.081537905E0,-2.555611555E0,-5.196266769E0,6.559589515E0
1.544323287E1,2.716695330E0,-3.654354539E0,-5.313951924E0,6.998058707E0
1.545322687E1,2.467190252E0,-4.495802785E0,-5.822997655E0,7.759289408E0
1.546322087E1,2.422399557E0,-4.983221127E0,-7.170100831E0,9.061504199E0
1.547321487E1,2.543902213E0,-5.221464175E0,-8.935228472E0,1.065708377E1
1.548320787E1,2.954143448E0,-5.495158891E0,-1.038875741E1,1.211816880E1
1.549320187E1,2.866433167E0,-5.859495975E0,-1.116814097E1,1.293358051E1
1.550319587E1,2.666544346E0,-6.296753685E0,-1.100520128E1,1.295662074E1
1.551318987E1,2.579529591E0,-7.022703050E0,-9.938644592E0,1.243981460E1
1.552318387E1,2.384089039E0,-7.963631145E0,-8.675137303E0,1.201504510E1
1.553317787E1,2.040440866E0,-8.769285661E0,-7.230585015E0,1.154751617E1
1.554317187E1,1.956628923E0,-9.327711128E0,-5.158483230E0,1.083718325E1
1.555316587E1,2.404423023E0,-9.277387651E0,-2.513905120E0,9.908122459E0
1.556315987E1,3.636396863E0,-8.535105844E0,-2.370408601E-1,9.280495799E0
1.557315287E1,5.258240823E0,-6.642442828E0,1.855226802E0,8.672543443E0
1.558314687E1,5.956156297E0,-4.412381144E0,3.383531098E0,8.148201513E0
1.559314075E1,5.531451974E0,-1.519883721E0,4.566282492E0,7.331980855E0
1.560313475E1,5.682559814E0,1.794980892E0,4.430818877E0,7.426008239E0
1.561312875E1,7.432518607E0,4.798256739E0,2.581197217E0,9.215648629E0
1.562312275E1,8.161627223E0,7.064598350E0,9.099337596E-1,1.083275995E1
1.563311675E1,5.725476038E0,7.047563657E0,5.476888096E-1,9.096658309E0
1.564311075E1,2.353689949E0,3.957684991E0,1.399952066E0,4.812794682E0
1.565310475E1,4.999087255E-1,1.386530075E0,3.598214545E0,3.888382992E0
1.566309875E1,-1.324497402E-1,6.918410942E-1,6.862246681E0,6.898305339E0
1.567309175E1,4.493493866E-1,-5.522484684E-1,1.124333499E1,1.126585438E1
1.568308575E1,1.261739968E0,-1.156912255E0,1.514437742E1,1.524082022E1
1.569307975E1,1.707162145E0,-9.210241735E-3,1.421667689E1,1.431881243E1
1.570307375E1,1.299191823E0,1.635967324E0,8.950904857E0,9.191462682E0
1.571306775E1,8.635350801E-2,2.868545181E0,3.409884499E0,4.456828545E0
1.572306175E1,-9.374415471E-1,3.809480586E0,-8.704720706E-1,4.018539612E0
1.573305575E1,-1.117446473E0,4.198403457E0,-4.036426520E0,5.930262833E0
1.574304975E1,-7.481608906E-1,3.980951647E0,-5.672845834E0,6.970573907E0
1.575304375E1,-3.803144543E-1,3.327807133E0,-5.781011138E0,6.681244583E0
1.576303675E1,-5.918318526E-1,2.176105332E0,-4.784481284E0,5.289325147E0
1.577303075E1,-1.365377772E0,7.494019622E-1,-3.408592265E0,3.747580685E0
1.578302475E1,-2.259675785E0,-4.505963784E-1,-2.460351641E0,3.370831047E0
1.579301875E1,-3.085781522E0,-9.206274399E-1,-2.616298637E0,4.149050619E0
1.580301275E1,-3.592166770E0,-8.143741760E-1,-3.321192763E0,4.959555299E0
1.581300675E1,-3.795717994E0,-1.838358754E-1,-4.670509111E0,6.021206364E0
1.582300075E1,-3.381770794E0,9.979223683E-1,-6.285588427E0,7.206999697E0
1.583299475E1,-3.594671132E0,2.301059453E0,-7.086023718E0,8.272138011E0
1.584298875E1,-5.199625409E0,2.266367338E0,-7.062486336E0,9.058213872E0
1.585298175E1,-6.771596712E0,1.539353488E0,-6.253125270E0,9.344822462E0
1.586297575E1,-8.087179888E0,9.860042810E-1,-4.976853510E0,9.546923790E0
1.587296975E1,-9.616414477E0,-3.807180583E-2,-3.446359431E0,1.021539379E1
1.588296375E1,-1.070223482E1,-1.619737500E0,-2.010879682E0,1.100931500E1
1.589295775E1,-1.027107751E1,-2.707827735E0,-5.527834886E-1,1.063639666E1
1.590295175E1,-8.526251990E0,-2.577392141E0,2.683415902E-1,8.911337186E0
1.591294575E1,-6.180402864E0,-1.886341883E0,-3.465948772E-1,6.471150846E0
1.592293975E1,-3.954025803E0,-1.067818815E0,-7.515911597E-1,4.164066083E0
1.593293375E1,-2.795556727E0,3.001878655E-1,8.837130904E-2,2.813016114E0
1.594292675E1,-3.147324344E0,9.166241437E-1,1.819395649E0,3.749140018E0
1.595292075E1,-5.062637426E0,2.377947123E0,3.690065532E0,6.700859188E0
1.596291475E1,-5.004226080E0,3.971839930E0,4.303356593E0,7.703029862E0
1.597290875E1,-1.845610032E0,3.925221249E0,4.242430944E0,6.067277690E0
1.598290275E1,2.357043912E0,4.274539760E0,5.017539605E0,7.000217843E0
1.599289675E1,1.720932776E0,7.358880528E0,5.189738352E0,9.167775979E0
1.600289075E1,-1.813256803E0,8.805639555E0,8.782365882E-1,9.033188125E0
1.601288475E1,-4.349628826E0,7.234958732E0,-2.428584888E0,8.784185980E0
1.602287875E1,-5.257978283E0,5.201467282E0,6.258859634E-1,7.422488178E0
1.603287175E1,-3.555165589E0,9.170638543E-1,6.785705459E0,7.715309913E0
1.604286575E1,-2.657189970E0,-2.611828440E0,1.232256143E1,1.287353201E1
1.605285975E1,-1.297073669E0,-4.584315012E0,1.392995517E1,1.472216000E1
1.606285375E1,4.712565648E-1,-4.057204601E0,1.229979003E1,1.296024023E1
1.607284775E1,2.310033760E0,-2.459830654E0,8.875702647E0,9.495531596E0
1.608284175E1,4.436507633E0,-1.410986347E0,4.914091251E0,6.769178331E0
1.609283575E1,5.749012250E0,-9.181160608E-1,1.825686668E0,6.101410555E0
1.610282975E1,6.187007879E0,-1.127173316E0,-3.512048221E-1,6.298645172E0
1.611282275E1,6.071644068E0,-2.002050094E0,-2.247163328E0,6.776637020E0
1.612281675E1,4.940777943E0,-2.983580671E0,-3.883116619E0,6.956409633E0
1.613281075E1,3.343682908E0,-4.212586463E0,-4.515587132E0,7.022579814E0
1.614280475E1,1.850791104E0,-6.067110137E0,-3.450133224E0,7.220711349E0
1.615279875E1,1.331946024E0,-7.615846360E0,-2.144959846E0,8.023468622E0
1.616279275E1,1.740010633E0,-8.489964169E0,-1.423498803E0,8.782566677E0
1.617278675E1,2.714042740E0,-8.787560549E0,-1.672145802E0,9.347904577E0
1.618278075E1,3.704812794E0,-8.673976046E0,-2.579864636E0,9.778507035E0
1.619277475E1,4.418108785E0,-8.511708795E0,-3.459703361E0,1.019501933E1
1.620276775E1,4.982580857E0,-8.299703958E0,-4.556967877E0,1.069939970E1
1.621276175E1,4.676796622E0,-8.000110170E0,-5.962697577E0,1.101943518E1
1.622275575E1,3.884847102E0,-8.079387889E0,-7.325294706E0,1.157706734E1
1.623274975E1,2.478851062E0,-8.018268113E0,-8.245316082E0,1.176531187E1
1.624274375E1,1.053649549E0,-7.798575942E0,-8.963534843E0,1.192782130E1
1.625273775E1,-6.173168689E-2,-7.703726503E0,-8.951270893E0,1.181001539E1
1.626273175E1,-5.663779727E-1,-7.554168175E0,-7.768567446E0,1.085066270E1
1.627272575E1,-6.429327898E-1,-7.297908686E0,-5.241005570E0,9.007828437E0
1.628271875E1,-1.230583079E-1,-5.272350739E0,-2.013231432E0,5.644991272E0
1.629271275E1,2.246629770E0,-1.167032908E0,-8.351010936E-1,2.665840387E0
1.630270675E1,5.114472992E0,3.712415052E0,-3.007587292E0,6.998959982E0
1.631270075E1,6.204748331E0,8.636908207E0,-5.141370184E0,1.181222979E1
1.632269475E1,6.202424648E0,1.029846119E1,-4.162765555E0,1.272230292E1
1.633268875E1,4.333737848E0,7.089284710E0,-5.734773695E-2,8.309183485E0
1.634268275E1,2.561326624E0,7.496896452E-1,3.998120241E0,4.807015092E0
1.635267675E1,3.762655498E-1,-2.090788024E0,1.018803536E1,1.040716266E1
1.636267075E1,5.333406195E-2,-3.977217030E0,1.941552989E1,1.981877646E1
1.637266375E1,9.682500878E-1,-5.354901729E0,2.839177541E1,2.890856952E1
1.638265775E1,1.626205983E0,-3.843270768E0,2.988235230E1,3.017234255E1
1.639265175E1,1.318060787E0,-2.193103480E-1,2.415273818E1,2.418967017E1
1.640264575E1,4.371755567E-1,3.067174805E0,1.524665457E1,1.555825053E1
1.641263975E1,-5.462229127E-1,5.779741123E0,7.053847659E0,9.135673687E0
1.642263375E1,-5.296963423E-1,7.885650339E0,2.803523558E-1,7.908391551E0
1.643262775E1,-3.581967764E-1,8.993714077E0,-3.963797670E0,9.834982959E0
1.644262175E1,-4.138447277E-1,8.864832673E0,-5.971454952E0,1.069648541E1
1.645261575E1,-5.419414352E-1,7.598272553E0,-5.883119895E0,9.624892000E0
1.646260875E1,-9.430979973E-1,5.728946360E0,-3.307384563E0,6.681994678E0
1.647260275E1,-1.170199906E0,3.299213956E0,-7.404913902E-3,3.500605002E0
1.648259675E1,-1.214941193E0,1.404912259E0,3.537022848E0,3.995045830E0
1.649259075E1,-1.457613506E0,5.236532450E-1,5.073638377E0,5.304776738E0
1.650258475E1,-1.643967046E0,2.684149727E-1,4.265973004E0,4.579650633E0
1.651257875E1,-2.045876730E0,3.884194261E-1,2.119706306E0,2.971470354E0
1.652257275E1,-2.615594340E0,8.494852442E-1,-1.095841303E0,2.960376174E0
1.653256675E1,-3.159887379E0,1.822985547E0,-4.454731066E0,5.757846248E0
1.654255975E1,-3.053747551E0,2.417802915E0,-7.179136534E0,8.167689172E0
1.655255375E1,-2.864710577E0,2.555953617E0,-8.220302278E0,9.072642125E0
1.656254775E1,-3.445521525E0,1.670968757E0,-8.178712787E0,9.030786124E0
1.657254175E1,-4.487191299E0,-6.996690542E-2,-7.694801313E0,8.907847572E0
1.658253575E1,-5.466390005E0,-1.788642510E0,-6.539743502E0,8.709127786E0
1.659252992E1,-5.993061583E0,-3.253865291E0,-4.492464318E0,8.166190183E0
1.660252392E1,-5.173596529E0,-4.657567761E0,-2.688109462E0,7.462236325E0
1.661251792E1,-2.759867954E0,-5.145518784E0,-2.213868697E0,6.244553570E0
1.662251092E1,-6.492124070E-1,-4.222729921E0,-2.772597635E0,5.093154462E0
