"Time (s)","Acceleration x (m/s^2)","Acceleration y (m/s^2)","Acceleration z (m/s^2)","Absolute acceleration (m/s^2)"
3.049220833E-2,-1.007405090E-1,-1.265468445E0,9.803563385E0,9.885414209E0
4.041520833E-2,-9.145980835E-2,-1.276545410E0,9.809251556E0,9.892388447E0
5.033820833E-2,-9.250762939E-2,-1.284179535E0,9.805359650E0,9.889527420E0
6.026120833E-2,-8.711883545E-2,-1.298998718E0,9.800120544E0,9.886220210E0
7.018420833E-2,-9.610015869E-2,-1.299148407E0,9.808353424E0,9.894484257E0
8.010720833E-2,-1.092727661E-1,-1.302890625E0,9.808952179E0,9.895706512E0
9.003120833E-2,-1.071771240E-1,-1.295256500E0,9.814939728E0,9.900617061E0
9.995420833E-2,-1.119671631E-1,-1.262474670E0,9.804311829E0,9.885894465E0
1.098772083E-1,-1.005908203E-1,-1.230740662E0,9.814191284E0,9.891571748E0
1.198002083E-1,-1.152603149E-1,-1.206940155E0,9.807006226E0,9.881667905E0
1.297232083E-1,-1.146615601E-1,-1.188528442E0,9.801018677E0,9.873485415E0
1.396472083E-1,-1.318757629E-1,-1.187031555E0,9.785600739E0,9.858215708E0
1.495702083E-1,-1.389111328E-1,-1.216969299E0,9.801318054E0,9.877557703E0
1.594932083E-1,-1.438508606E-1,-1.258133698E0,9.805659027E0,9.887089684E0
1.694162083E-1,-1.318757629E-1,-1.295855255E0,9.815089417E0,9.901141970E0
1.793392083E-1,-1.320254517E-1,-1.306782532E0,9.788594513E0,9.876319853E0
1.892632083E-1,-1.338217163E-1,-1.297352142E0,9.790839844E0,9.877326343E0
1.991862083E-1,-1.329235840E-1,-1.285975800E0,9.802365875E0,9.887253369E0
2.091092083E-1,-1.297801208E-1,-1.267713776E0,9.807006226E0,9.889454596E0
2.190322083E-1,-1.288819885E-1,-1.265019379E0,9.796827393E0,9.879003571E0
2.289552083E-1,-1.260379028E-1,-1.264720001E0,9.802665253E0,9.884717917E0
2.388782083E-1,-1.297801208E-1,-1.274300079E0,9.804311829E0,9.887629342E0
2.488022083E-1,-1.288819885E-1,-1.271755371E0,9.803862762E0,9.886844661E0
2.587252083E-1,-1.282832336E-1,-1.268312531E0,9.787846069E0,9.870511838E0
2.686482083E-1,-1.401086426E-1,-1.259929962E0,9.796378326E0,9.878060653E0
2.785712083E-1,-1.451980591E-1,-1.250948639E0,9.796228638E0,9.876844157E0
2.884942083E-1,-1.425036621E-1,-1.250798950E0,9.810449066E0,9.890890566E0
2.984182083E-1,-1.383123779E-1,-1.250050507E0,9.799222412E0,9.879601028E0
3.083412083E-1,-1.338217163E-1,-1.247056732E0,9.786498871E0,9.866540371E0
3.182642083E-1,-1.465452576E-1,-1.234632568E0,9.783355408E0,9.862040160E0
3.281872083E-1,-1.489402771E-1,-1.220861206E0,9.787696381E0,9.864668557E0
3.381102083E-1,-1.396595764E-1,-1.207987976E0,9.782906342E0,9.858194370E0
3.480342083E-1,-1.451980591E-1,-1.196761322E0,9.779313812E0,9.853339473E0
3.579572083E-1,-1.535806274E-1,-1.194665680E0,9.767638092E0,9.841624205E0
3.678802083E-1,-1.419049072E-1,-1.196461945E0,9.788744202E0,9.862614827E0
3.778032083E-1,-1.248403931E-1,-1.200952606E0,9.797575836E0,9.871695120E0
3.877262083E-1,-1.218466187E-1,-1.189276886E0,9.785900116E0,9.858654431E0
3.976502083E-1,-1.193019104E-1,-1.176253967E0,9.800270233E0,9.871327316E0
4.075732083E-1,-1.336720276E-1,-1.133143616E0,9.789193268E0,9.855464855E0
4.174962083E-1,-1.525328064E-1,-1.112037506E0,9.793983307E0,9.858093258E0
4.274192083E-1,-1.410067749E-1,-1.145867157E0,9.784852295E0,9.852726977E0
4.373422083E-1,-1.434017944E-1,-1.173260193E0,9.797426147E0,9.868468101E0
4.472652083E-1,-1.396595764E-1,-1.197509766E0,9.804760895E0,9.878606716E0
4.571892083E-1,-1.553768921E-1,-1.208736420E0,9.812544708E0,9.887933018E0
4.671122083E-1,-1.398092651E-1,-1.216819611E0,9.810748444E0,9.886909609E0
4.770352083E-1,-1.525328064E-1,-1.208137665E0,9.828711090E0,9.903859074E0
4.869582083E-1,-1.477427673E-1,-1.207089844E0,9.819430389E0,9.894448291E0
4.968812083E-1,-1.532812500E-1,-1.215921478E0,9.829010468E0,9.905120239E0
5.068052083E-1,-1.546284485E-1,-1.221609650E0,9.826166382E0,9.903019027E0
5.167282083E-1,-1.546284485E-1,-1.219364319E0,9.831854553E0,9.908386511E0
5.266512083E-1,-1.627116394E-1,-1.209784241E0,9.843829651E0,9.919225533E0
5.365742083E-1,-1.508862305E-1,-1.203647003E0,9.829609222E0,9.904178423E0
5.464972083E-1,-1.468446350E-1,-1.184935913E0,9.828711090E0,9.900969556E0
5.564212083E-1,-1.332229614E-1,-1.170565796E0,9.818831635E0,9.889258178E0
5.663442083E-1,-1.323248291E-1,-1.157692566E0,9.822424164E0,9.891298115E0
5.762672083E-1,-1.233435059E-1,-1.152303772E0,9.814490662E0,9.882673958E0
5.861902083E-1,-1.216969299E-1,-1.159788208E0,9.817933502E0,9.886947814E0
5.961132083E-1,-1.294807434E-1,-1.166973267E0,9.819280701E0,9.889229765E0
6.060362083E-1,-1.329235840E-1,-1.196012878E0,9.813442841E0,9.886949776E0
6.159602083E-1,-1.516346741E-1,-1.210832062E0,9.824968872E0,9.900460630E0
6.258832083E-1,-1.375639343E-1,-1.229094086E0,9.824370117E0,9.901911144E0
6.358062083E-1,-1.297801208E-1,-1.243464203E0,9.830207977E0,9.909391252E0
6.457292083E-1,-1.230441284E-1,-1.249601440E0,9.827363892E0,9.907256163E0
6.556522083E-1,-1.227447510E-1,-1.246158600E0,9.837393036E0,9.916767582E0
6.655762083E-1,-1.282832336E-1,-1.246158600E0,9.820178833E0,9.899761621E0
6.754992083E-1,-1.428030396E-1,-1.259630585E0,9.825867004E0,9.907306612E0
6.854222083E-1,-1.622625732E-1,-1.265019379E0,9.824968872E0,9.907402107E0
6.953452083E-1,-1.673519897E-1,-1.277742920E0,9.817783813E0,9.901995388E0
7.052682083E-1,-1.683998108E-1,-1.287921753E0,9.820178833E0,9.905706095E0
7.151922083E-1,-1.730401611E-1,-1.289268951E0,9.824070740E0,9.909819535E0
7.251152083E-1,-2.002835083E-1,-1.311123505E0,9.820178833E0,9.909342594E0
7.350382083E-1,-2.164498901E-1,-1.325643311E0,9.821376343E0,9.912800513E0
7.449612083E-1,-2.168989563E-1,-1.341210938E0,9.804910583E0,9.898594016E0
7.548842083E-1,-2.290237427E-1,-1.337618408E0,9.796677704E0,9.890225928E0
7.648072083E-1,-2.288740540E-1,-1.342707825E0,9.803862762E0,9.898028728E0
7.747312083E-1,-2.230361938E-1,-1.351689148E0,9.804012451E0,9.899266076E0
7.846537500E-1,-2.374063110E-1,-1.362915802E0,9.789642334E0,9.886910451E0
7.945767500E-1,-2.478845215E-1,-1.378932495E0,9.797126770E0,9.896797184E0
8.044997500E-1,-2.445913696E-1,-1.381177826E0,9.796528015E0,9.896435635E0
8.144227500E-1,-2.392025757E-1,-1.380130005E0,9.803413696E0,9.902974139E0
8.243467500E-1,-2.321672058E-1,-1.393751678E0,9.788145447E0,9.889602451E0
8.342697500E-1,-2.255809021E-1,-1.389859772E0,9.785900116E0,9.886679827E0
8.441927500E-1,-2.436932373E-1,-1.386865997E0,9.807155914E0,9.907728842E0
8.541157500E-1,-2.293231201E-1,-1.377285919E0,9.810748444E0,9.909605977E0
8.640387500E-1,-2.291734314E-1,-1.366658020E0,9.795031128E0,9.892568393E0
8.739617500E-1,-2.200424194E-1,-1.371597748E0,9.794432373E0,9.892451898E0
8.838857500E-1,-2.227368164E-1,-1.393601990E0,9.799521790E0,9.900624500E0
8.938087500E-1,-2.399510193E-1,-1.396446075E0,9.788744202E0,9.890760900E0
9.037317500E-1,-2.243833923E-1,-1.381028137E0,9.788444824E0,9.887933995E0
9.136547500E-1,-2.124082947E-1,-1.335822144E0,9.782756653E0,9.875822285E0
9.235777500E-1,-1.953437805E-1,-1.278641052E0,9.774224396E0,9.859439369E0
9.335017500E-1,-1.722917175E-1,-1.229692841E0,9.774374084E0,9.852929395E0
9.434247500E-1,-1.592687988E-1,-1.194815369E0,9.770033112E0,9.844109778E0
9.533477500E-1,-1.459465027E-1,-1.175505524E0,9.774972839E0,9.846481992E0
9.632707500E-1,-1.519340515E-1,-1.166374512E0,9.767189026E0,9.837758633E0
9.731937500E-1,-1.639091492E-1,-1.195713501E0,9.770931244E0,9.845186355E0
9.831177500E-1,-1.669029236E-1,-1.226549377E0,9.760752411E0,9.838931222E0
9.930407500E-1,-1.681004333E-1,-1.235231323E0,9.769434357E0,9.848649746E0
1.002963750E0,-1.520837402E-1,-1.254840546E0,9.768985291E0,9.850422725E0
1.012886750E0,-1.374142456E-1,-1.245559845E0,9.762398987E0,9.842496430E0
1.022809750E0,-1.434017944E-1,-1.234632568E0,9.766889648E0,9.845659707E0
1.032732750E0,-1.282832336E-1,-1.238973541E0,9.781559143E0,9.860548225E0
1.042656750E0,-1.369651794E-1,-1.246607666E0,9.780211945E0,9.860290859E0
1.052579750E0,-1.309776306E-1,-1.253792725E0,9.790390778E0,9.871215878E0
1.062502750E0,-1.387614441E-1,-1.246457977E0,9.800120544E0,9.880044277E0
1.072425750E0,-1.372645569E-1,-1.247505798E0,9.796977081E0,9.877037623E0
1.082348750E0,-1.392105103E-1,-1.251248016E0,9.808503113E0,9.888970345E0
1.092272750E0,-1.486408997E-1,-1.273401947E0,9.821226654E0,9.904551460E0
1.102195750E0,-1.468446350E-1,-1.283131714E0,9.826316071E0,9.910826296E0
1.112118750E0,-1.456471252E-1,-1.272503815E0,9.826615448E0,9.909735123E0
1.122041750E0,-1.543290710E-1,-1.268013153E0,9.830357666E0,9.913001900E0
1.131964750E0,-1.423539734E-1,-1.264270935E0,9.841135254E0,9.923033243E0
1.141887750E0,-1.401086426E-1,-1.249601440E0,9.842931519E0,9.922924724E0
1.151811750E0,-1.448986816E-1,-1.234333191E0,9.840536499E0,9.918706198E0
1.161734750E0,-1.450483704E-1,-1.227447510E0,9.822573853E0,9.900031490E0
1.171657750E0,-1.442999268E-1,-1.213676147E0,9.822124786E0,9.897876923E0
1.181580750E0,-1.303788757E-1,-1.226549377E0,9.831405487E0,9.908478989E0
1.191503750E0,-1.151106262E-1,-1.233285370E0,9.816586304E0,9.894423173E0
1.201427750E0,-1.196012878E-1,-1.233285370E0,9.820328522E0,9.898189205E0
1.211350750E0,-1.179547119E-1,-1.238075409E0,9.820927277E0,9.899361424E0
1.221273750E0,-1.139131165E-1,-1.222807159E0,9.825717316E0,9.902169172E0
1.231196750E0,-1.001417542E-1,-1.218017120E0,9.840835876E0,9.916433070E0
1.241119750E0,-1.071771240E-1,-1.249302063E0,9.846823425E0,9.926337399E0
1.251043750E0,-1.157093811E-1,-1.288370819E0,9.832004242E0,9.916733103E0
1.260966750E0,-9.879455566E-2,-1.300345917E0,9.843081207E0,9.929093993E0
1.270889750E0,-9.864486694E-2,-1.283880157E0,9.846074982E0,9.929918006E0
1.280812750E0,-8.756790161E-2,-1.264420624E0,9.842033386E0,9.923308361E0
1.290735750E0,-8.487350464E-2,-1.230291595E0,9.838440857E0,9.915429361E0
1.300658750E0,-7.873626709E-2,-1.205742645E0,9.844428406E0,9.918305569E0
1.310582750E0,-7.888595581E-2,-1.184037781E0,9.839039612E0,9.910341515E0
1.320505750E0,-8.681945801E-2,-1.163680115E0,9.826765137E0,9.895807298E0
1.330428750E0,-9.774673462E-2,-1.175505524E0,9.817783813E0,9.888389488E0
1.340351750E0,-1.065783691E-1,-1.163081360E0,9.817185059E0,9.886416928E0
1.350274750E0,-1.017883301E-1,-1.171314240E0,9.812844086E0,9.883028228E0
1.360198750E0,-1.103205872E-1,-1.188079376E0,9.811197510E0,9.883486218E0
1.370121750E0,-1.160087585E-1,-1.195114746E0,9.798024902E0,9.871324596E0
1.380044750E0,-1.050814819E-1,-1.204395447E0,9.788145447E0,9.862525123E0
1.389967750E0,-1.061293030E-1,-1.205293579E0,9.781858521E0,9.856406655E0
1.399890750E0,-9.969268799E-2,-1.196911011E0,9.780211945E0,9.853683589E0
1.409813750E0,-1.064286804E-1,-1.193468170E0,9.770332489E0,9.843530377E0
1.419737750E0,-8.816665649E-2,-1.195563812E0,9.768087158E0,9.841375560E0
1.429660750E0,-9.056167603E-2,-1.189576263E0,9.777517548E0,9.850032614E0
1.439583750E0,-9.041198730E-2,-1.180295563E0,9.778415680E0,9.849806351E0
1.449506750E0,-8.337661743E-2,-1.182690582E0,9.782756653E0,9.854340993E0
1.459429750E0,-9.190887451E-2,-1.195713501E0,9.780661011E0,9.853908251E0
1.469353750E0,-1.050814819E-1,-1.219663696E0,9.778116302E0,9.854449760E0
1.479276750E0,-1.074765015E-1,-1.247206421E0,9.780960388E0,9.860743439E0
1.489199750E0,-1.086740112E-1,-1.260379028E0,9.789941711E0,9.871338514E0
1.499122750E0,-1.202000427E-1,-1.267564087E0,9.784253540E0,9.866751446E0
1.509045750E0,-1.204994202E-1,-1.272952881E0,9.780062256E0,9.863292902E0
1.518968750E0,-1.203497314E-1,-1.283431091E0,9.775571594E0,9.860196723E0
1.528892750E0,-1.351689148E-1,-1.284478912E0,9.788594513E0,9.873436041E0
1.538815750E0,-1.541793823E-1,-1.292412415E0,9.777517548E0,9.863769590E0
1.548738750E0,-1.594184875E-1,-1.308429108E0,9.777966614E0,9.866409280E0
1.558661750E0,-1.498384094E-1,-1.329834595E0,9.783505096E0,9.874608021E0
1.568584750E0,-1.589694214E-1,-1.356179810E0,9.785451050E0,9.880260482E0
1.578508750E0,-1.561253357E-1,-1.365011444E0,9.770033112E0,9.866163305E0
1.588431750E0,-1.450483704E-1,-1.358425140E0,9.776020660E0,9.871015036E0
1.598354750E0,-1.410067749E-1,-1.338965607E0,9.786648560E0,9.878825934E0
1.608277750E0,-1.437011719E-1,-1.343905334E0,9.798324280E0,9.891101570E0
1.618200750E0,-1.477427673E-1,-1.356030121E0,9.783654785E0,9.878286621E0
1.628123750E0,-1.270857239E-1,-1.334624634E0,9.787846069E0,9.879236022E0
1.638047750E0,-1.258882141E-1,-1.302142181E0,9.785301361E0,9.872362677E0
1.647970750E0,-1.225950623E-1,-1.283431091E0,9.801617432E0,9.886047198E0
1.657893750E0,-1.233435059E-1,-1.259480896E0,9.797875214E0,9.879264368E0
1.667816750E0,-1.246907043E-1,-1.270108795E0,9.801168365E0,9.883907398E0
1.677739750E0,-1.269360352E-1,-1.282982025E0,9.806706848E0,9.891089669E0
1.687663750E0,-1.270857239E-1,-1.291364594E0,9.818382568E0,9.903757345E0
1.697586750E0,-1.395098877E-1,-1.282083893E0,9.807305603E0,9.891736213E0
1.707509750E0,-1.333726501E-1,-1.275796967E0,9.809700623E0,9.893213455E0
1.717432750E0,-1.239422607E-1,-1.260678406E0,9.809700623E0,9.891152513E0
1.727355750E0,-1.121168518E-1,-1.238374786E0,9.811945953E0,9.890420906E0
1.737278750E0,-1.037342834E-1,-1.233285370E0,9.820627899E0,9.898307226E0
1.747202750E0,-9.909393311E-2,-1.229393463E0,9.819131012E0,9.896290301E0
1.757125750E0,-9.804611206E-2,-1.229094086E0,9.806407471E0,9.883618406E0
1.767048750E0,-9.714797974E-2,-1.245110779E0,9.801018677E0,9.880268503E0
1.776971750E0,-8.696914673E-2,-1.234482880E0,9.799222412E0,9.877057836E0
1.786895000E0,-8.427474976E-2,-1.241518250E0,9.807754669E0,9.886380604E0
1.796819000E0,-8.577163696E-2,-1.254541168E0,9.801467743E0,9.881801467E0
1.806742000E0,-8.996292114E-2,-1.268611908E0,9.805060272E0,9.887197603E0
1.816665000E0,-8.622070312E-2,-1.259929962E0,9.805958405E0,9.886944814E0
1.826588000E0,-7.963439941E-2,-1.267863464E0,9.801617432E0,9.883598721E0
1.836511000E0,-7.544311523E-2,-1.270557861E0,9.808802490E0,9.891037116E0
1.846434000E0,-7.110214233E-2,-1.275497589E0,9.805509338E0,9.888375145E0
1.856358000E0,-6.197113037E-2,-1.271156616E0,9.813143463E0,9.895325371E0
1.866281000E0,-6.765930176E-2,-1.263821869E0,9.821226654E0,9.902439926E0
1.876204000E0,-5.673202515E-2,-1.289568329E0,9.829010468E0,9.913407677E0
1.886127000E0,-4.954696655E-2,-1.309027863E0,9.833650818E0,9.920519001E0
1.896050000E0,-4.760101318E-2,-1.316961365E0,9.827363892E0,9.915328242E0
1.905974000E0,-4.999603271E-2,-1.301693115E0,9.822274475E0,9.908278379E0
1.915897000E0,-5.328918457E-2,-1.291065216E0,9.820328522E0,9.904975588E0
1.925820000E0,-5.628295898E-2,-1.282982025E0,9.819729767E0,9.903348088E0
1.935743000E0,-6.526428223E-2,-1.252295837E0,9.817185059E0,9.896950377E0
1.945666000E0,-7.259902954E-2,-1.229842529E0,9.814939728E0,9.891957598E0
1.955589000E0,-6.391708374E-2,-1.215771790E0,9.812395020E0,9.887632804E0
1.965513000E0,-6.676116943E-2,-1.210832062E0,9.807904358E0,9.882588691E0
1.975436000E0,-6.002517700E-2,-1.203647003E0,9.808952179E0,9.882707725E0
1.985359000E0,-5.718109131E-2,-1.228046265E0,9.797575836E0,9.874404264E0
1.995282000E0,-6.032455444E-2,-1.266067200E0,9.787397003E0,9.869128903E0
2.005205000E0,-5.822891235E-2,-1.288221130E0,9.791139221E0,9.875692965E0
2.015129000E0,-5.987548828E-2,-1.278491364E0,9.801018677E0,9.884234535E0
2.025052000E0,-6.182144165E-2,-1.261277161E0,9.785151672E0,9.866297949E0
2.034975000E0,-5.089416504E-2,-1.251846771E0,9.792636108E0,9.872458281E0
2.044898000E0,-4.385879517E-2,-1.240470428E0,9.783056030E0,9.861484461E0
2.054821000E0,-4.879852295E-2,-1.222807159E0,9.780211945E0,9.856479307E0
2.064744000E0,-5.568420410E-2,-1.233435059E0,9.786349182E0,9.863928887E0
2.074668000E0,-6.780899048E-2,-1.249451752E0,9.780661011E0,9.860378164E0
2.084591000E0,-8.083190918E-2,-1.255738678E0,9.789941711E0,9.870479833E0
2.094514000E0,-9.639953613E-2,-1.253942413E0,9.783355408E0,9.863858651E0
2.104437000E0,-9.610015869E-2,-1.245709534E0,9.780211945E0,9.859694375E0
2.114360000E0,-8.128097534E-2,-1.239123230E0,9.786498871E0,9.864967974E0
2.124284000E0,-9.220825195E-2,-1.251697083E0,9.779463501E0,9.859673134E0
2.134207000E0,-9.954299927E-2,-1.256936188E0,9.779613190E0,9.860559392E0
2.144130000E0,-1.101708984E-1,-1.257385254E0,9.780211945E0,9.861323491E0
2.154053000E0,-1.193019104E-1,-1.271605682E0,9.785451050E0,9.868448014E0
2.163976000E0,-1.215472412E-1,-1.294508057E0,9.785301361E0,9.871304249E0
2.173899000E0,-1.263372803E-1,-1.298998718E0,9.780211945E0,9.866909570E0
2.183823000E0,-1.207987976E-1,-1.302740936E0,9.776170349E0,9.863327683E0
2.193746000E0,-1.143621826E-1,-1.304537201E0,9.786049805E0,9.873280448E0
2.203669000E0,-1.127156067E-1,-1.302890625E0,9.782906342E0,9.869928332E0
2.213592000E0,-1.215472412E-1,-1.315015411E0,9.783654785E0,9.872382702E0
2.223515000E0,-1.163081360E-1,-1.336420898E0,9.777068481E0,9.868668425E0
2.233439000E0,-1.118174744E-1,-1.338666229E0,9.788145447E0,9.879894823E0
2.243362000E0,-1.049317932E-1,-1.342558136E0,9.788744202E0,9.880940546E0
2.253285000E0,-9.340576172E-2,-1.331630859E0,9.798773346E0,9.889283314E0
2.263208000E0,-9.759704590E-2,-1.340013428E0,9.800569611E0,9.892235635E0
2.273131000E0,-1.004411316E-1,-1.346450043E0,9.800270233E0,9.892841492E0
2.283054000E0,-9.011260986E-2,-1.352138214E0,9.799072723E0,9.892331589E0
2.292978000E0,-9.714797974E-2,-1.340312805E0,9.803862762E0,9.895534408E0
2.302901000E0,-1.035845947E-1,-1.324894867E0,9.808203735E0,9.897824846E0
2.312824000E0,-1.058299255E-1,-1.311123505E0,9.809251556E0,9.897053143E0
2.322747000E0,-1.026864624E-1,-1.314266968E0,9.813293152E0,9.901442554E0
2.332670000E0,-1.010398865E-1,-1.299148407E0,9.799970856E0,9.886223972E0
2.342594000E0,-1.137634277E-1,-1.306034088E0,9.800419922E0,9.887714488E0
2.352517000E0,-9.804611206E-2,-1.312770081E0,9.815089417E0,9.902977258E0
2.362440000E0,-9.580078125E-2,-1.298100586E0,9.813293152E0,9.899240648E0
2.372363000E0,-9.116043091E-2,-1.280437317E0,9.807904358E0,9.891552853E0
2.382286000E0,-8.726852417E-2,-1.257534943E0,9.797875214E0,9.878631921E0
2.392209000E0,-8.831634521E-2,-1.243164825E0,9.803713074E0,9.882613449E0
2.402133000E0,-1.041833496E-1,-1.259031830E0,9.796677704E0,9.877798811E0
2.412056000E0,-1.240919495E-1,-1.270707550E0,9.799072723E0,9.881898741E0
2.421979000E0,-1.267863464E-1,-1.270408173E0,9.786947937E0,9.869871409E0
2.431902000E0,-1.365161133E-1,-1.264720001E0,9.803114319E0,9.885302407E0
2.441825000E0,-1.390608215E-1,-1.269210663E0,9.803264008E0,9.886061846E0
2.451749000E0,-1.466949463E-1,-1.271755371E0,9.798174591E0,9.881452649E0
2.461672000E0,-1.450483704E-1,-1.274300079E0,9.789642334E0,9.873296144E0
2.471595000E0,-1.499880981E-1,-1.279239807E0,9.798623657E0,9.882913360E0
2.481518000E0,-1.622625732E-1,-1.284778290E0,9.807155914E0,9.892284444E0
2.491441000E0,-1.710942078E-1,-1.303339691E0,9.800419922E0,9.888184779E0
2.501364000E0,-1.860630798E-1,-1.315015411E0,9.795031128E0,9.884660834E0
2.511288000E0,-1.794767761E-1,-1.329984283E0,9.802515564E0,9.893956817E0
2.521211000E0,-1.802252197E-1,-1.341510315E0,9.798623657E0,9.891671074E0
2.531134000E0,-1.682501221E-1,-1.328188019E0,9.802216187E0,9.893221603E0
2.541057000E0,-1.597178650E-1,-1.316212921E0,9.796078949E0,9.885397768E0
2.550980000E0,-1.706451416E-1,-1.334774323E0,9.815837860E0,9.907644279E0
2.560903000E0,-1.724414062E-1,-1.371148682E0,9.813442841E0,9.910269680E0
2.570827000E0,-1.678010559E-1,-1.396296387E0,9.811496887E0,9.911774410E0
2.580750000E0,-1.725910950E-1,-1.401086426E0,9.815239105E0,9.916236663E0
2.590673000E0,-1.773811340E-1,-1.412013702E0,9.804611206E0,9.907353212E0
2.600596000E0,-1.773811340E-1,-1.412762146E0,9.803413696E0,9.906274832E0
2.610519000E0,-1.818717957E-1,-1.398541718E0,9.794582062E0,9.895596700E0
2.620443000E0,-1.814227295E-1,-1.395248566E0,9.790390778E0,9.890974894E0
2.630366000E0,-1.724414062E-1,-1.402733002E0,9.799072723E0,9.900465754E0
2.640289000E0,-1.725910950E-1,-1.403182068E0,9.801318054E0,9.902754324E0
2.650212000E0,-1.779798889E-1,-1.406475220E0,9.790091400E0,9.892205973E0
2.660135000E0,-1.796264648E-1,-1.415456543E0,9.788744202E0,9.892183578E0
2.670058000E0,-1.742376709E-1,-1.421593781E0,9.786798248E0,9.891041785E0
2.679982000E0,-1.757345581E-1,-1.428180084E0,9.791737976E0,9.896904242E0
2.689905000E0,-1.748364258E-1,-1.419348450E0,9.787247314E0,9.891174237E0
2.699828000E0,-1.558259583E-1,-1.395997009E0,9.790690155E0,9.890940455E0
2.709751000E0,-1.577719116E-1,-1.375789032E0,9.788444824E0,9.885916220E0
2.719674000E0,-1.435514832E-1,-1.354533234E0,9.785900116E0,9.880243337E0
2.729597000E0,-1.398092651E-1,-1.340911560E0,9.788444824E0,9.880852317E0
2.739521000E0,-1.362167358E-1,-1.328038330E0,9.786947937E0,9.877580206E0
2.749444000E0,-1.392105103E-1,-1.337917786E0,9.776469727E0,9.868574562E0
2.759367000E0,-1.296304321E-1,-1.332229614E0,9.784403229E0,9.875534737E0
2.769290000E0,-1.103205872E-1,-1.320404205E0,9.794881439E0,9.884095321E0
2.779213000E0,-1.234931946E-1,-1.305734711E0,9.771829376E0,9.859454501E0
2.789136750E0,-1.284329224E-1,-1.292711792E0,9.783505096E0,9.869375399E0
2.799059750E0,-1.197509766E-1,-1.276695099E0,9.786947937E0,9.870594744E0
2.808982750E0,-1.291813660E-1,-1.269659729E0,9.778116302E0,9.861048731E0
2.818905750E0,-1.413061523E-1,-1.291514282E0,9.778715057E0,9.864646205E0
2.828828750E0,-1.291813660E-1,-1.310225372E0,9.780211945E0,9.868430677E0
2.838751750E0,-1.383123779E-1,-1.329834595E0,9.777667236E0,9.868655782E0
2.848675750E0,-1.094224548E-1,-1.334325256E0,9.777517548E0,9.868751013E0
2.858598750E0,-9.954299927E-2,-1.322649536E0,9.790091400E0,9.879534413E0
2.868521750E0,-9.460327148E-2,-1.322200470E0,9.793534241E0,9.882837487E0
2.878444750E0,-9.550140381E-2,-1.322499847E0,9.788594513E0,9.877991137E0
2.888367750E0,-1.062789917E-1,-1.310524750E0,9.786049805E0,9.873983043E0
2.898290750E0,-1.134640503E-1,-1.308728485E0,9.798773346E0,9.886435324E0
2.908214750E0,-1.031355286E-1,-1.301393738E0,9.793833618E0,9.880457456E0
2.918137750E0,-1.020877075E-1,-1.293160858E0,9.796228638E0,9.881739848E0
2.928060750E0,-1.134640503E-1,-1.280886383E0,9.790989532E0,9.875070635E0
2.937983750E0,-1.242416382E-1,-1.272952881E0,9.817933502E0,9.900892044E0
2.947906750E0,-1.234931946E-1,-1.265318756E0,9.808652802E0,9.890700274E0
2.957830750E0,-1.167572021E-1,-1.271455994E0,9.814191284E0,9.896897653E0
2.967753750E0,-1.149609375E-1,-1.282532959E0,9.820328522E0,9.904390899E0
2.977676750E0,-1.173559570E-1,-1.300794983E0,9.819430389E0,9.905910013E0
2.987599750E0,-1.213975525E-1,-1.309027863E0,9.809550934E0,9.897251176E0
2.997522750E0,-1.275347900E-1,-1.308728485E0,9.813442841E0,9.901146184E0
3.007445750E0,-1.348695374E-1,-1.290765839E0,9.818232880E0,9.903633834E0
3.017369750E0,-1.327738953E-1,-1.266815643E0,9.812694397E0,9.895020066E0
3.027292750E0,-1.261875916E-1,-1.235530701E0,9.811047821E0,9.889343698E0
3.037215750E0,-1.336720276E-1,-1.207538910E0,9.815089417E0,9.889994878E0
3.047138750E0,-1.329235840E-1,-1.212778015E0,9.807904358E0,9.883495692E0
3.057061750E0,-1.543290710E-1,-1.221010895E0,9.812993774E0,9.889870165E0
3.066984750E0,-1.719923401E-1,-1.228195953E0,9.811796265E0,9.889863124E0
3.076908750E0,-1.823208618E-1,-1.242117004E0,9.809251556E0,9.889262442E0
3.086831750E0,-1.752854919E-1,-1.249601440E0,9.806706848E0,9.887554196E0
3.096754750E0,-1.812730408E-1,-1.259331207E0,9.813592529E0,9.895725003E0
3.106677750E0,-1.761836243E-1,-1.237925720E0,9.811197510E0,9.890555967E0
3.116600750E0,-1.725910950E-1,-1.215771790E0,9.815239105E0,9.891754517E0
3.126523750E0,-1.778302002E-1,-1.206341400E0,9.809700623E0,9.885196480E0
3.136447750E0,-1.709445190E-1,-1.189725952E0,9.814790039E0,9.888112731E0
3.146370750E0,-1.706451416E-1,-1.177301788E0,9.812544708E0,9.884391378E0
3.156293750E0,-1.601669312E-1,-1.182840271E0,9.817933502E0,9.890226631E0
3.166216750E0,-1.612147522E-1,-1.198856964E0,9.815688171E0,9.889943503E0
3.176139750E0,-1.646575928E-1,-1.205892334E0,9.813293152E0,9.888478696E0
3.186063750E0,-1.673519897E-1,-1.213077393E0,9.802814941E0,9.879005224E0
3.195986750E0,-1.640588379E-1,-1.221759338E0,9.798024902E0,9.875267246E0
3.205909750E0,-1.691482544E-1,-1.206940155E0,9.796228638E0,9.871748133E0
3.215832750E0,-1.621128845E-1,-1.188678131E0,9.797725525E0,9.870899744E0
3.225755750E0,-1.556762695E-1,-1.193168793E0,9.796677704E0,9.870297914E0
3.235678750E0,-1.450483704E-1,-1.204096069E0,9.785151672E0,9.860024322E0
3.245602750E0,-1.432521057E-1,-1.216071167E0,9.802365875E0,9.878548831E0
3.255525750E0,-1.468446350E-1,-1.230740662E0,9.785301361E0,9.863488665E0
3.265448750E0,-1.401086426E-1,-1.238524475E0,9.778265991E0,9.857386018E0
3.275371750E0,-1.466949463E-1,-1.251846771E0,9.789792023E0,9.870596111E0
3.285294750E0,-1.510359192E-1,-1.256337433E0,9.794881439E0,9.876279563E0
3.295217750E0,-1.369651794E-1,-1.263821869E0,9.782307587E0,9.864560147E0
3.305141750E0,-1.404080200E-1,-1.275647278E0,9.780960388E0,9.864794803E0
3.315064750E0,-1.441502380E-1,-1.287772064E0,9.780661011E0,9.866127203E0
3.324987750E0,-1.399589539E-1,-1.303489380E0,9.778415680E0,9.865905244E0
3.334910750E0,-1.332229614E-1,-1.324296112E0,9.779762878E0,9.869917452E0
3.344833750E0,-1.404080200E-1,-1.344653778E0,9.781559143E0,9.874548469E0
3.354756750E0,-1.264869690E-1,-1.354832611E0,9.782756653E0,9.876937688E0
3.364680750E0,-1.240919495E-1,-1.354233856E0,9.784852295E0,9.878900879E0
3.374603750E0,-1.179547119E-1,-1.362167358E0,9.772877197E0,9.868056645E0
3.384526750E0,-1.230441284E-1,-1.370849304E0,9.782307587E0,9.878659291E0
3.394449750E0,-1.128652954E-1,-1.387315063E0,9.786349182E0,9.884837478E0
3.404372750E0,-1.058299255E-1,-1.410965881E0,9.782157898E0,9.883958611E0
3.414295750E0,-1.068777466E-1,-1.416354675E0,9.771380310E0,9.874074974E0
3.424219750E0,-1.136137390E-1,-1.419049072E0,9.773176575E0,9.876314531E0
3.434142750E0,-1.193019104E-1,-1.409768372E0,9.776320038E0,9.878163457E0
3.444065750E0,-1.227447510E-1,-1.388811951E0,9.770182800E0,9.869160899E0
3.453988750E0,-1.293310547E-1,-1.363514557E0,9.766590271E0,9.862159195E0
3.463911750E0,-1.330732727E-1,-1.347497864E0,9.766590271E0,9.860007328E0
3.473834750E0,-1.318757629E-1,-1.339564362E0,9.767638092E0,9.859948164E0
3.483758750E0,-1.413061523E-1,-1.355281677E0,9.778565369E0,9.873048998E0
3.493681750E0,-1.462458801E-1,-1.364712067E0,9.778415680E0,9.874271623E0
3.503604750E0,-1.555265808E-1,-1.383273468E0,9.776320038E0,9.874921138E0
3.513527750E0,-1.489402771E-1,-1.396745453E0,9.780062256E0,9.880419971E0
3.523450750E0,-1.537303162E-1,-1.391506348E0,9.785900116E0,9.885533066E0
3.533373750E0,-1.456471252E-1,-1.391955414E0,9.782307587E0,9.881917561E0
3.543297750E0,-1.378633118E-1,-1.382075958E0,9.788145447E0,9.886199044E0
3.553220750E0,-1.338217163E-1,-1.363514557E0,9.791438599E0,9.886827096E0
3.563143750E0,-1.336720276E-1,-1.357227631E0,9.791737976E0,9.886256503E0
3.573066750E0,-1.463955688E-1,-1.354233856E0,9.793234863E0,9.887508791E0
3.582989750E0,-1.555265808E-1,-1.369651794E0,9.803264008E0,9.899703014E0
3.592913750E0,-1.553768921E-1,-1.384321289E0,9.800120544E0,9.898628698E0
3.602836750E0,-1.529818726E-1,-1.389111328E0,9.798174591E0,9.897335957E0
3.612759750E0,-1.314266968E-1,-1.376836853E0,9.800868988E0,9.897978865E0
3.622682750E0,-1.200503540E-1,-1.346899109E0,9.810449066E0,9.903204541E0
3.632605750E0,-1.166075134E-1,-1.326840820E0,9.801467743E0,9.891555681E0
3.642528750E0,-1.104702759E-1,-1.281485138E0,9.799521790E0,9.883574007E0
3.652452750E0,-1.315763855E-1,-1.260229340E0,9.800270233E0,9.881841275E0
3.662375750E0,-1.396595764E-1,-1.275796967E0,9.804012451E0,9.887660130E0
3.672298750E0,-1.323248291E-1,-1.315763855E0,9.797276459E0,9.886120088E0
3.682221750E0,-1.252894592E-1,-1.358874207E0,9.814340973E0,9.908760028E0
3.692144750E0,-1.169068909E-1,-1.382674713E0,9.801467743E0,9.899203326E0
3.702067750E0,-1.068777466E-1,-1.380279694E0,9.802216187E0,9.899496808E0
3.711991750E0,-9.580078125E-2,-1.367556152E0,9.807604980E0,9.902954260E0
3.721914750E0,-1.038839722E-1,-1.358724518E0,9.814640350E0,9.908788493E0
3.731837750E0,-1.116677856E-1,-1.354383545E0,9.806257782E0,9.899975564E0
3.741760750E0,-1.100212097E-1,-1.348246307E0,9.805808716E0,9.898674525E0
3.751683750E0,-1.082249451E-1,-1.351240082E0,9.810299377E0,9.903511310E0
3.761606750E0,-1.088237000E-1,-1.360820160E0,9.803264008E0,9.897861350E0
3.771530750E0,-9.744735718E-2,-1.375040588E0,9.805509338E0,9.901931427E0
3.781453750E0,-8.532257080E-2,-1.383123779E0,9.812993774E0,9.910356106E0
3.791377083E0,-8.292755127E-2,-1.378333740E0,9.797276459E0,9.894104653E0
3.801300083E0,-7.229965210E-2,-1.361718292E0,9.804760895E0,9.899133303E0
3.811223083E0,-5.807922363E-2,-1.335522766E0,9.807754669E0,9.898436538E0
3.821146083E0,-5.328918457E-2,-1.314266968E0,9.803862762E0,9.891706752E0
3.831070083E0,-6.286926270E-2,-1.302740936E0,9.812395020E0,9.898696001E0
3.840993083E0,-7.319778442E-2,-1.280437317E0,9.802964630E0,9.886505610E0
3.850916083E0,-6.855743408E-2,-1.271156616E0,9.792935486E0,9.875329093E0
3.860839083E0,-8.322692871E-2,-1.272054749E0,9.797725525E0,9.880307458E0
3.870762083E0,-9.939331055E-2,-1.284628601E0,9.789043579E0,9.873475774E0
3.880685083E0,-1.058299255E-1,-1.329684906E0,9.793683929E0,9.884103745E0
3.890609083E0,-1.234931946E-1,-1.361119537E0,9.797276459E0,9.892144508E0
3.900532083E0,-1.386117554E-1,-1.383872223E0,9.799671478E0,9.897872328E0
3.910455083E0,-1.480421448E-1,-1.392105103E0,9.790989532E0,9.890568695E0
3.920378083E0,-1.435514832E-1,-1.391955414E0,9.787846069E0,9.887369599E0
3.930301083E0,-1.576222229E-1,-1.400637360E0,9.794582062E0,9.895477126E0
3.940224083E0,-1.676513672E-1,-1.410516815E0,9.794881439E0,9.897341414E0
3.950148083E0,-1.874102783E-1,-1.417701874E0,9.777966614E0,9.881985242E0
3.960071083E0,-1.796264648E-1,-1.425186310E0,9.784552917E0,9.889433628E0
3.969994083E0,-1.594184875E-1,-1.404978333E0,9.785151672E0,9.886787730E0
3.979917083E0,-1.751358032E-1,-1.385967865E0,9.791737976E0,9.890890358E0
3.989840083E0,-1.721420288E-1,-1.428928528E0,9.779313812E0,9.884657215E0
3.999763083E0,-1.413061523E-1,-1.451531525E0,9.798623657E0,9.906560290E0
4.009687083E0,-1.294807434E-1,-1.427431641E0,9.785301361E0,9.889714307E0
4.019610083E0,-1.155596924E-1,-1.418899384E0,9.795180817E0,9.898090560E0
4.029533083E0,-9.355545044E-2,-1.404080200E0,9.770631866E0,9.871445735E0
4.039456083E0,-8.711883545E-2,-1.372645569E0,9.772577820E0,9.868891670E0
4.049379083E0,-7.589218140E-2,-1.344204712E0,9.763297119E0,9.855689553E0
4.059302083E0,-8.711883545E-2,-1.318757629E0,9.785900116E0,9.874743159E0
4.069226083E0,-7.948471069E-2,-1.286424866E0,9.764644318E0,9.849339338E0
4.079149083E0,-8.247848511E-2,-1.255289612E0,9.751920776E0,9.832726658E0
4.089072083E0,-8.322692871E-2,-1.229393463E0,9.757908325E0,9.835400851E0
4.098995083E0,-7.948471069E-2,-1.215622101E0,9.771529999E0,9.847174896E0
4.108918083E0,-8.427474976E-2,-1.203796692E0,9.741442566E0,9.815901995E0
4.118841083E0,-8.996292114E-2,-1.207089844E0,9.759854279E0,9.834628349E0
4.128765083E0,-9.190887451E-2,-1.204395447E0,9.749226379E0,9.823768657E0
4.138688083E0,-7.110214233E-2,-1.220711517E0,9.774523773E0,9.850710995E0
4.148611083E0,-8.202941895E-2,-1.231489105E0,9.776020660E0,9.853622389E0
4.158534083E0,-5.837860107E-2,-1.241218872E0,9.784103851E0,9.862693371E0
4.168457083E0,-4.894821167E-2,-1.244811401E0,9.777367859E0,9.856412816E0
4.178380083E0,-5.463638306E-2,-1.259630585E0,9.794731750E0,9.875546790E0
4.188304083E0,-5.478607178E-2,-1.288819885E0,9.791139221E0,9.875751387E0
4.198227083E0,-6.556365967E-2,-1.333726501E0,9.786947937E0,9.877624962E0
4.208150083E0,-7.020401001E-2,-1.352287903E0,9.781708832E0,9.874990574E0
4.218073083E0,-6.167175293E-2,-1.350042572E0,9.810299377E0,9.902948663E0
4.227996083E0,-6.331832886E-2,-1.328786774E0,9.799072723E0,9.888958982E0
4.237919083E0,-4.730163574E-2,-1.317859497E0,9.800868988E0,9.889187227E0
4.247842083E0,-4.550537109E-2,-1.313368835E0,9.798174591E0,9.885910871E0
4.257766083E0,-4.340972900E-2,-1.321002960E0,9.817185059E0,9.905758714E0
4.267689083E0,-4.834945679E-2,-1.335073700E0,9.814790039E0,9.905294694E0
4.277612083E0,-4.311035156E-2,-1.335971832E0,9.799970856E0,9.890708165E0
4.287535083E0,-3.652404785E-2,-1.352287903E0,9.800868988E0,9.893788430E0
4.297458083E0,-4.894821167E-2,-1.363664246E0,9.802216187E0,9.896737759E0
4.307381083E0,-5.553451538E-2,-1.358425140E0,9.809101868E0,9.902872432E0
4.317305083E0,-5.538482666E-2,-1.342258759E0,9.803413696E0,9.895031387E0
4.327228083E0,-5.703140259E-2,-1.319805450E0,9.801916809E0,9.890536494E0
4.337151083E0,-5.867797852E-2,-1.288221130E0,9.817035370E0,9.901370624E0
4.347074083E0,-5.209167480E-2,-1.272803192E0,9.815538483E0,9.897855182E0
4.356997083E0,-7.140151978E-2,-1.276545410E0,9.811796265E0,9.894746702E0
4.366920083E0,-9.101074219E-2,-1.305135956E0,9.810449066E0,9.897301334E0
4.376844083E0,-1.109193420E-1,-1.315314789E0,9.811347198E0,9.899741913E0
4.386767083E0,-1.251397705E-1,-1.332079926E0,9.815089417E0,9.905860747E0
4.396690083E0,-1.341210938E-1,-1.362766113E0,9.818532257E0,9.913561198E0
4.406613083E0,-1.233435059E-1,-1.372346191E0,9.816436615E0,9.912667426E0
4.416536083E0,-1.080752563E-1,-1.370250549E0,9.817035370E0,9.912792255E0
4.426459083E0,-1.163081360E-1,-1.362915802E0,9.822873230E0,9.917656253E0
4.436383083E0,-1.236428833E-1,-1.360371094E0,9.817484436E0,9.912058198E0
4.446306083E0,-1.231938171E-1,-1.353485413E0,9.812395020E0,9.906068620E0
4.456229083E0,-1.196012878E-1,-1.362915802E0,9.809101868E0,9.904055907E0
4.466152083E0,-1.202000427E-1,-1.379381561E0,9.803862762E0,9.901154812E0
4.476075083E0,-1.264869690E-1,-1.372196503E0,9.806856537E0,9.903199348E0
4.485998083E0,-1.215472412E-1,-1.361867981E0,9.790690155E0,9.885700372E0
4.495922083E0,-1.222956848E-1,-1.345252533E0,9.793534241E0,9.886251744E0
4.505845083E0,-1.212478638E-1,-1.344204712E0,9.787696381E0,9.880313142E0
4.515768083E0,-1.417552185E-1,-1.368304596E0,9.798324280E0,9.894418159E0
4.525691083E0,-1.363664246E-1,-1.394200745E0,9.781708832E0,9.881508953E0
4.535614083E0,-1.300794983E-1,-1.411265259E0,9.786498871E0,9.888586879E0
4.545537083E0,-1.338217163E-1,-1.424737244E0,9.774523773E0,9.878719525E0
4.555460083E0,-1.408570862E-1,-1.443747711E0,9.787995758E0,9.894903190E0
4.565384083E0,-1.514849854E-1,-1.478924561E0,9.778415680E0,9.890782515E0
4.575307083E0,-1.663041687E-1,-1.499132538E0,9.781409454E0,9.897021085E0
4.585230083E0,-1.606159973E-1,-1.505569153E0,9.779014435E0,9.895537342E0
4.595153083E0,-1.456471252E-1,-1.501078491E0,9.776320038E0,9.891960534E0
4.605076083E0,-1.440005493E-1,-1.485061798E0,9.773026886E0,9.886263157E0
4.614999083E0,-1.511856079E-1,-1.458117828E0,9.761351166E0,9.870812594E0
4.624923083E0,-1.541793823E-1,-1.429826660E0,9.762848053E0,9.868200326E0
4.634846083E0,-1.570234680E-1,-1.425036621E0,9.770332489E0,9.874957351E0
4.644769083E0,-1.630110168E-1,-1.415456543E0,9.756860504E0,9.860345669E0
4.654692083E0,-1.483415222E-1,-1.410217438E0,9.757309570E0,9.859807730E0
4.664615083E0,-1.546284485E-1,-1.409918060E0,9.757608948E0,9.860157771E0
4.674538083E0,-1.480421448E-1,-1.412163391E0,9.759704590E0,9.862451805E0
4.684462083E0,-1.493893433E-1,-1.410516815E0,9.748927002E0,9.851571070E0
4.694385083E0,-1.498384094E-1,-1.411714325E0,9.757459259E0,9.860192700E0
4.704308083E0,-1.547781372E-1,-1.415157166E0,9.742191010E0,9.845654460E0
4.714231083E0,-1.529818726E-1,-1.416654053E0,9.758956146E0,9.862430594E0
4.724154083E0,-1.450483704E-1,-1.431622925E0,9.753567352E0,9.859140902E0
4.734077083E0,-1.378633118E-1,-1.441053314E0,9.752669220E0,9.859523207E0
4.744000083E0,-1.285826111E-1,-1.435215454E0,9.751022644E0,9.856917342E0
4.753924083E0,-1.151106262E-1,-1.434916077E0,9.774523773E0,9.879956963E0
4.763847083E0,-9.924362183E-2,-1.421893158E0,9.772877197E0,9.876272483E0
4.773770083E0,-9.160949707E-2,-1.431173859E0,9.777068481E0,9.881686041E0
4.783693083E0,-8.861572266E-2,-1.434167633E0,9.772278442E0,9.877353669E0
4.793615500E0,-8.622070312E-2,-1.436862030E0,9.789792023E0,9.895051003E0
4.803538500E0,-8.113128662E-2,-1.428329773E0,9.797426147E0,9.901326545E0
4.813462500E0,-8.352630615E-2,-1.418600006E0,9.792785797E0,9.895355289E0
4.823385500E0,-8.352630615E-2,-1.400936737E0,9.784552917E0,9.884688977E0
4.833308500E0,-8.906478882E-2,-1.385668488E0,9.795929260E0,9.893848582E0
4.843231500E0,-9.864486694E-2,-1.373244324E0,9.784552917E0,9.880941584E0
4.853154500E0,-9.175918579E-2,-1.362466736E0,9.797575836E0,9.892281214E0
4.863077500E0,-1.077758789E-1,-1.378483429E0,9.799970856E0,9.897032938E0
4.873001500E0,-1.149609375E-1,-1.395248566E0,9.801318054E0,9.900796442E0
4.882924500E0,-1.106199646E-1,-1.408570862E0,9.811646576E0,9.912856157E0
4.892847500E0,-1.046324158E-1,-1.416204987E0,9.812844086E0,9.915063971E0
4.902770500E0,-9.250762939E-2,-1.407972107E0,9.798923035E0,9.899991705E0
4.912693500E0,-8.801696777E-2,-1.397643585E0,9.808952179E0,9.908415485E0
4.922616500E0,-7.948471069E-2,-1.382375336E0,9.809700623E0,9.906942298E0
4.932539500E0,-8.741821289E-2,-1.375938721E0,9.806557159E0,9.903000183E0
4.942463500E0,-9.430389404E-2,-1.366957397E0,9.800419922E0,9.895741326E0
4.952386500E0,-8.352630615E-2,-1.367256775E0,9.801617432E0,9.896871829E0
4.962309500E0,-6.945556641E-2,-1.370400238E0,9.809700623E0,9.905203036E0
4.972232500E0,-6.391708374E-2,-1.364113312E0,9.808503113E0,9.903111826E0
4.982155500E0,-6.122268677E-2,-1.359922028E0,9.817783813E0,9.911711010E0
4.992078500E0,-4.565505981E-2,-1.362017670E0,9.798473969E0,9.892788718E0
5.002002500E0,-3.772155762E-2,-1.348845062E0,9.810748444E0,9.903110165E0
5.011925500E0,-4.370910645E-2,-1.340312805E0,9.824070740E0,9.915175984E0
5.021848500E0,-4.116439819E-2,-1.349593506E0,9.821076965E0,9.913458019E0
5.031771500E0,-4.565505981E-2,-1.351988525E0,9.803713074E0,9.896602821E0
5.041694500E0,-4.775070190E-2,-1.358425140E0,9.821376343E0,9.914990280E0
5.051617500E0,-5.673202515E-2,-1.368903351E0,9.806557159E0,9.901801767E0
5.061541500E0,-6.406677246E-2,-1.373244324E0,9.802515564E0,9.898445126E0
5.071464500E0,-6.286926270E-2,-1.372196503E0,9.799372101E0,9.895179097E0
5.081387500E0,-5.029541016E-2,-1.362915802E0,9.808054047E0,9.902423607E0
5.091310500E0,-4.266128540E-2,-1.350791016E0,9.803264008E0,9.895981081E0
5.101233500E0,-4.131408691E-2,-1.321601715E0,9.793833618E0,9.882687635E0
5.111156500E0,-4.550537109E-2,-1.309027863E0,9.795180817E0,9.882367728E0
5.121079500E0,-5.284011841E-2,-1.302740936E0,9.790989532E0,9.877418795E0
5.131003500E0,-5.358856201E-2,-1.321901093E0,9.781559143E0,9.870622751E0
5.140926500E0,-6.571334839E-2,-1.326242065E0,9.782756653E0,9.872464940E0
5.150849500E0,-7.364685059E-2,-1.319356384E0,9.777068481E0,9.865961343E0
5.160772500E0,-7.185058594E-2,-1.311572571E0,9.772727509E0,9.860607896E0
5.170695500E0,-7.574249268E-2,-1.295256500E0,9.768985291E0,9.854770415E0
5.180618500E0,-6.526428223E-2,-1.275647278E0,9.764494629E0,9.847684538E0
5.190542500E0,-5.957611084E-2,-1.263821869E0,9.764794006E0,9.846420518E0
5.200465500E0,-6.481521606E-2,-1.267713776E0,9.763446808E0,9.845617949E0
5.210388500E0,-7.604187012E-2,-1.272054749E0,9.765243073E0,9.848039293E0
5.220311500E0,-9.595046997E-2,-1.275048523E0,9.764045563E0,9.847412908E0
5.230234500E0,-1.070274353E-1,-1.275198212E0,9.764494629E0,9.847991709E0
5.240157500E0,-1.062789917E-1,-1.290017395E0,9.759405212E0,9.844868217E0
5.250080500E0,-1.113684082E-1,-1.312919769E0,9.766889648E0,9.855368824E0
5.260004500E0,-1.104702759E-1,-1.313668213E0,9.763895874E0,9.852491588E0
5.269927500E0,-1.119671631E-1,-1.315913544E0,9.768835602E0,9.857703288E0
5.279850500E0,-1.212478638E-1,-1.325643311E0,9.764045563E0,9.854370451E0
5.289773500E0,-1.270857239E-1,-1.325493622E0,9.762099609E0,9.852495770E0
5.299696500E0,-1.342707825E-1,-1.341510315E0,9.764644318E0,9.857279402E0
5.309619500E0,-1.402583313E-1,-1.373244324E0,9.763596497E0,9.860694140E0
5.319543500E0,-1.478924561E-1,-1.397344208E0,9.768835602E0,9.869376476E0
5.329466500E0,-1.351689148E-1,-1.411864014E0,9.764794006E0,9.867260644E0
5.339389500E0,-1.323248291E-1,-1.416803741E0,9.768236847E0,9.871336981E0
5.349312500E0,-1.390608215E-1,-1.421593781E0,9.770631866E0,9.874488030E0
5.359235500E0,-1.377136230E-1,-1.415306854E0,9.766440582E0,9.869418432E0
5.369158500E0,-1.332229614E-1,-1.404828644E0,9.772278442E0,9.873637518E0
5.379081500E0,-1.281335449E-1,-1.410965881E0,9.779313812E0,9.881407873E0
5.389005500E0,-1.187031555E-1,-1.421294403E0,9.785451050E0,9.888843232E0
5.398928500E0,-1.067280579E-1,-1.430425415E0,9.788594513E0,9.893133492E0
5.408851500E0,-1.019380188E-1,-1.439107361E0,9.785001984E0,9.890787895E0
5.418774500E0,-8.951385498E-2,-1.451980591E0,9.789492645E0,9.896990786E0
5.428697500E0,-8.547225952E-2,-1.465901642E0,9.793085175E0,9.902559789E0
5.438620500E0,-8.517288208E-2,-1.453776855E0,9.795779572E0,9.903434706E0
5.448544500E0,-7.783813477E-2,-1.441801758E0,9.795779572E0,9.901623528E0
5.458467500E0,-7.753875732E-2,-1.456171875E0,9.796677704E0,9.904612199E0
5.468390500E0,-7.259902954E-2,-1.455573120E0,9.786947937E0,9.894862993E0
5.478313500E0,-5.972579956E-2,-1.436562653E0,9.784103851E0,9.889184375E0
5.488236500E0,-5.089416504E-2,-1.420096893E0,9.784702606E0,9.887349012E0
5.498159500E0,-5.418731689E-2,-1.405876465E0,9.793683929E0,9.894224063E0
5.508082500E0,-5.074447632E-2,-1.415007477E0,9.802665253E0,9.904396358E0
5.518006500E0,-4.535568237E-2,-1.416354675E0,9.783954163E0,9.886044546E0
5.527929500E0,-5.942642212E-2,-1.421144714E0,9.793683929E0,9.896435152E0
5.537852500E0,-5.987548828E-2,-1.421593781E0,9.795180817E0,9.897983693E0
5.547775500E0,-4.849914551E-2,-1.405577087E0,9.796378326E0,9.896819056E0
5.557698500E0,-4.116439819E-2,-1.394500122E0,9.795629883E0,9.894477748E0
5.567621500E0,-3.951782227E-2,-1.409918060E0,9.789941711E0,9.891025695E0
5.577544500E0,-4.565505981E-2,-1.425485687E0,9.793384552E0,9.896690094E0
5.587468500E0,-4.011657715E-2,-1.443298645E0,9.797276459E0,9.903097815E0
5.597391500E0,-4.670288086E-2,-1.439706116E0,9.802066498E0,9.907342857E0
5.607314500E0,-4.864883423E-2,-1.441652069E0,9.790241089E0,9.895935932E0
5.617237500E0,-4.834945679E-2,-1.437161407E0,9.790839844E0,9.895873657E0
5.627160500E0,-4.864883423E-2,-1.435963898E0,9.804012451E0,9.908734489E0
5.637083500E0,-4.670288086E-2,-1.446891174E0,9.799372101E0,9.905724042E0
5.647007500E0,-4.340972900E-2,-1.457519073E0,9.796528015E0,9.904453918E0
5.656930500E0,-4.430786133E-2,-1.454225922E0,9.795779572E0,9.903233494E0
5.666853500E0,-5.882766724E-2,-1.442250824E0,9.785301361E0,9.891191579E0
5.676776500E0,-6.661148071E-2,-1.414259033E0,9.790690155E0,9.892531497E0
5.686699500E0,-6.556365967E-2,-1.395997009E0,9.790091400E0,9.889337484E0
5.696622500E0,-6.122268677E-2,-1.382225647E0,9.784103851E0,9.881446459E0
5.706545500E0,-5.284011841E-2,-1.367256775E0,9.774972839E0,9.870272396E0
5.716469500E0,-6.735992432E-2,-1.355880432E0,9.765542450E0,9.859450717E0
5.726392500E0,-6.256988525E-2,-1.368903351E0,9.770182800E0,9.865813870E0
5.736315500E0,-7.304809570E-2,-1.370849304E0,9.772877197E0,9.868824274E0
5.746238500E0,-8.921447754E-2,-1.383273468E0,9.774374084E0,9.872172682E0
5.756161500E0,-1.086740112E-1,-1.382525024E0,9.768985291E0,9.866927541E0
5.766084500E0,-1.160087585E-1,-1.365610199E0,9.766889648E0,9.862579919E0
5.776008500E0,-1.405577087E-1,-1.356628876E0,9.773475952E0,9.868182739E0
5.785931500E0,-1.338217163E-1,-1.366208954E0,9.758956146E0,9.855032228E0
5.795855083E0,-1.255888367E-1,-1.366957397E0,9.764644318E0,9.860660411E0
5.805778083E0,-1.317260742E-1,-1.369801483E0,9.766290894E0,9.862765620E0
5.815701083E0,-1.350192261E-1,-1.382525024E0,9.770033112E0,9.868290259E0
5.825624083E0,-1.353186035E-1,-1.385967865E0,9.765243073E0,9.864035194E0
5.835547083E0,-1.224453735E-1,-1.391955414E0,9.762249298E0,9.861746504E0
5.845471083E0,-1.178050232E-1,-1.405726776E0,9.760453033E0,9.861865402E0
5.855394083E0,-1.264869690E-1,-1.415606232E0,9.761201477E0,9.864126633E0
5.865317083E0,-1.258882141E-1,-1.423240356E0,9.765093384E0,9.869068332E0
5.875240083E0,-1.239422607E-1,-1.424737244E0,9.766141205E0,9.870296446E0
5.885163083E0,-1.278341675E-1,-1.438059540E0,9.777218170E0,9.883235905E0
5.895086083E0,-1.300794983E-1,-1.458716583E0,9.773625641E0,9.882739140E0
5.905009083E0,-1.251397705E-1,-1.474284210E0,9.782606964E0,9.893865418E0
5.914933083E0,-1.350192261E-1,-1.492097168E0,9.778415680E0,9.892522295E0
5.924856083E0,-1.413061523E-1,-1.490600281E0,9.768536224E0,9.882618914E0
5.934779083E0,-1.457968140E-1,-1.478774872E0,9.785750427E0,9.897926210E0
5.944702083E0,-1.555265808E-1,-1.487606506E0,9.788444824E0,9.902061084E0
5.954625083E0,-1.486408997E-1,-1.481020203E0,9.772877197E0,9.885577559E0
5.964548083E0,-1.399589539E-1,-1.483415222E0,9.773775330E0,9.886697802E0
5.974471083E0,-1.507365417E-1,-1.480870514E0,9.777517548E0,9.890174335E0
5.984395083E0,-1.637594604E-1,-1.481768646E0,9.786199493E0,9.899098747E0
5.994318083E0,-1.695973206E-1,-1.480421448E0,9.780062256E0,9.892928214E0
6.004241083E0,-1.664538574E-1,-1.484013977E0,9.784702606E0,9.898000276E0
6.014164083E0,-1.597178650E-1,-1.490600281E0,9.799372101E0,9.913379472E0
6.024087083E0,-1.490899658E-1,-1.490151215E0,9.795180817E0,9.909003264E0
6.034010083E0,-1.444496155E-1,-1.480870514E0,9.791438599E0,9.903843345E0
6.043933083E0,-1.329235840E-1,-1.475781097E0,9.793833618E0,9.905290277E0
6.053857083E0,-1.342707825E-1,-1.478774872E0,9.785001984E0,9.897023168E0
6.063780083E0,-1.393601990E-1,-1.471589813E0,9.792486420E0,9.903423051E0
6.073703083E0,-1.423539734E-1,-1.468745728E0,9.791288910E0,9.901859279E0
6.083626083E0,-1.556762695E-1,-1.443598022E0,9.789043579E0,9.896139881E0
6.093549083E0,-1.368154907E-1,-1.423240356E0,9.790989532E0,9.894837422E0
6.103472083E0,-1.344204712E-1,-1.401984558E0,9.789043579E0,9.889843465E0
6.113396083E0,-1.300794983E-1,-1.389111328E0,9.793234863E0,9.892118077E0
6.123319083E0,-1.269360352E-1,-1.401984558E0,9.800120544E0,9.900708871E0
6.133242083E0,-1.148112488E-1,-1.404678955E0,9.792486420E0,9.893386421E0
6.143165083E0,-1.188528442E-1,-1.419198761E0,9.794731750E0,9.897728082E0
6.153088083E0,-9.400451660E-2,-1.240171051E0,9.806706848E0,9.885259748E0
6.163011083E0,-1.197509766E-1,-1.056502991E0,9.784552917E0,9.842154981E0
6.172934083E0,-1.025367737E-1,-7.882608032E-1,9.785001984E0,9.817236511E0
6.182858083E0,-8.337661743E-2,-3.526666260E-1,9.812844086E0,9.819533312E0
6.192781083E0,-1.281335449E-1,-2.507286072E-1,9.779912567E0,9.783965089E0
6.202704083E0,-1.007405090E-1,-9.954299927E-2,9.798473969E0,9.799497414E0
6.212627083E0,-7.439529419E-2,2.275268555E-2,9.770332489E0,9.770642215E0
6.222550083E0,-7.469467163E-2,3.876937866E-2,9.800719299E0,9.801080611E0
6.232473083E0,-8.891510010E-2,3.847000122E-2,9.773026886E0,9.773507065E0
6.242396083E0,-8.681945801E-2,5.149291992E-2,9.783205719E0,9.783726452E0
6.252320083E0,-9.520202637E-2,5.328918457E-2,9.743388519E0,9.743999333E0
6.262243083E0,-9.565109253E-2,5.942642212E-2,9.792336731E0,9.792984187E0
6.272166083E0,-9.879455566E-2,6.721023560E-2,9.759554901E0,9.760286340E0
6.282089083E0,-1.007405090E-1,7.274871826E-2,9.765841827E0,9.766632358E0
6.292012083E0,-1.020877075E-1,7.798782349E-2,9.743238831E0,9.744085740E0
6.301935083E0,-1.128652954E-1,7.319778442E-2,9.765243073E0,9.766169605E0
6.311858083E0,-1.182540894E-1,7.259902954E-2,9.740245056E0,9.741233413E0
6.321782083E0,-1.076261902E-1,7.858657837E-2,9.758507080E0,9.759416974E0
6.331705083E0,-1.145118713E-1,7.843688965E-2,9.720935211E0,9.721926079E0
6.341628083E0,-1.170565796E-1,7.140151978E-2,9.754166107E0,9.755129772E0
6.351551083E0,-1.176553345E-1,7.200027466E-2,9.741143188E0,9.742119761E0
6.361474083E0,-1.212478638E-1,7.170089722E-2,9.772577820E0,9.773592958E0
6.371397083E0,-1.267863464E-1,7.304809570E-2,9.759704590E0,9.760801426E0
6.381320083E0,-1.215472412E-1,6.990463257E-2,9.790091400E0,9.791095445E0
6.391244083E0,-1.306782532E-1,6.810836792E-2,9.783205719E0,9.784315494E0
6.401167083E0,-1.231938171E-1,6.721023560E-2,9.816286926E0,9.817290000E0
6.411090083E0,-1.249900818E-1,6.361770630E-2,9.815688171E0,9.816690074E0
6.421013083E0,-1.261875916E-1,6.451583862E-2,9.841734009E0,9.842754386E0
6.430936083E0,-1.255888367E-1,6.062393188E-2,9.848619690E0,9.849606978E0
6.440859083E0,-1.264869690E-1,5.463638306E-2,9.866282959E0,9.867244981E0
6.450782083E0,-1.230441284E-1,4.326004028E-2,9.870025177E0,9.870886905E0
6.460706083E0,-1.218466187E-1,4.041595459E-2,9.880204010E0,9.881037968E0
6.470629083E0,-1.366658020E-1,3.562591553E-2,9.904752960E0,9.905759837E0
6.480552083E0,-1.228944397E-1,3.502716064E-2,9.904752960E0,9.905577275E0
6.490475083E0,-1.272354126E-1,2.634521484E-2,9.899663544E0,9.900516209E0
6.500398083E0,-1.342707825E-1,2.978805542E-2,9.907447357E0,9.908401945E0
6.510321083E0,-1.293310547E-1,2.903961182E-2,9.919721832E0,9.920607393E0
6.520244083E0,-1.218466187E-1,1.437011719E-2,9.939331055E0,9.940088275E0
6.530168083E0,-1.239422607E-1,1.811233521E-2,9.946366425E0,9.947155110E0
6.540091083E0,-1.341210938E-1,2.350112915E-2,9.954000549E0,9.954931828E0
6.550014083E0,-1.308279419E-1,1.317260742E-2,9.967023468E0,9.967890764E0
6.559937083E0,-1.414558411E-1,8.083190918E-3,9.980944519E0,9.981950139E0
6.569860083E0,-1.386117554E-1,1.377136230E-2,9.987081757E0,9.988053108E0
6.579783083E0,-1.402583313E-1,1.407073975E-2,1.000654129E1,1.000753411E1
6.589706083E0,-1.432521057E-1,1.646575928E-2,1.000549347E1,1.000653246E1
6.599630083E0,-1.520837402E-1,1.616638184E-2,1.002210892E1,1.002327581E1
6.609553083E0,-1.460961914E-1,1.377136230E-2,1.002001328E1,1.002108775E1
6.619476083E0,-1.535806274E-1,2.200424194E-2,1.001701950E1,1.001822094E1
6.629399083E0,-1.510359192E-1,3.712280273E-2,1.001118164E1,1.001238971E1
6.639322083E0,-1.595681763E-1,3.158432007E-2,1.002540207E1,1.002672161E1
6.649245083E0,-1.621128845E-1,3.652404785E-2,1.003453308E1,1.003590896E1
6.659168083E0,-1.561253357E-1,3.996688843E-2,1.002570145E1,1.002699666E1
6.669092083E0,-1.797761536E-1,4.939727783E-2,1.001522324E1,1.001695842E1
6.679015083E0,-1.779798889E-1,4.445755005E-2,1.002959335E1,1.003127091E1
6.688938083E0,-1.868115234E-1,4.670288086E-2,1.003767654E1,1.003952340E1
6.698861083E0,-1.950444031E-1,5.852828979E-2,1.001522324E1,1.001729326E1
6.708784083E0,-1.992356873E-1,5.403762817E-2,1.002061203E1,1.002273817E1
6.718707083E0,-2.176473999E-1,4.550537109E-2,1.002704865E1,1.002951373E1
6.728630083E0,-2.269281006E-1,4.430786133E-2,1.004186783E1,1.004452931E1
6.738554083E0,-2.266287231E-1,5.254074097E-2,1.004635849E1,1.004905170E1
6.748477083E0,-2.450404358E-1,4.505630493E-2,1.005758514E1,1.006067064E1
6.758400083E0,-2.484832764E-1,4.595443726E-2,1.005653732E1,1.005971166E1
6.768323083E0,-2.471360779E-1,3.293151855E-2,1.008647507E1,1.008955599E1
6.778246083E0,-2.589614868E-1,3.248245239E-2,1.008961853E1,1.009299352E1
6.788169083E0,-2.547702026E-1,2.918930054E-2,1.010054581E1,1.010380055E1
6.798091333E0,-2.481838989E-1,1.676513672E-2,1.010862900E1,1.011168910E1
6.808015333E0,-2.649490356E-1,2.050735474E-2,1.011716125E1,1.012065069E1
6.817938333E0,-2.749781799E-1,1.317260742E-2,1.011117371E1,1.011492067E1
6.827861333E0,-2.944377136E-1,7.334747314E-3,1.012344818E1,1.012773175E1
6.837784333E0,-2.630030823E-1,3.891906738E-3,1.011776001E1,1.012117846E1
6.847707333E0,-2.481838989E-1,7.035369873E-3,1.013153137E1,1.013457314E1
6.857630333E0,-2.438429260E-1,6.286926270E-3,1.013287857E1,1.013581408E1
6.867553333E0,-2.525248718E-1,8.981323242E-4,1.014979340E1,1.015293433E1
6.877477333E0,-2.712359619E-1,6.436614990E-3,1.013422577E1,1.013785689E1
6.887400333E0,-2.716850281E-1,2.544708252E-3,1.013677048E1,1.014041098E1
6.897323333E0,-2.838098145E-1,2.993774414E-4,1.012419662E1,1.012817384E1
6.907246333E0,-2.636018372E-1,2.245330811E-3,1.011850845E1,1.012194173E1
6.917169333E0,-2.679428101E-1,8.382568359E-3,1.012719040E1,1.013073783E1
6.927092333E0,-2.671943665E-1,8.981323242E-3,1.012434631E1,1.012787548E1
6.937015333E0,-2.776725769E-1,1.541793823E-2,1.012120285E1,1.012502281E1
6.946939333E0,-2.791694641E-1,2.200424194E-2,1.012180161E1,1.012567467E1
6.956862333E0,-2.676434326E-1,1.886077881E-2,1.012913635E1,1.013268928E1
6.966785333E0,-2.784210205E-1,2.275268555E-2,1.010997620E1,1.011383481E1
6.976708333E0,-2.784210205E-1,1.990859985E-2,1.008707382E1,1.009093519E1
6.986631333E0,-2.727328491E-1,2.859054565E-2,1.010353958E1,1.010726040E1
6.996554333E0,-2.746788025E-1,3.712280273E-2,1.009755203E1,1.010135553E1
7.006477333E0,-2.948867798E-1,3.038681030E-2,1.007345215E1,1.007781324E1
7.016401333E0,-2.761756897E-1,2.993774414E-2,1.004905289E1,1.005289178E1
7.026324333E0,-2.746788025E-1,5.074447632E-2,1.007569748E1,1.007956860E1
7.036247333E0,-2.733316040E-1,5.343887329E-2,1.004052063E1,1.004438253E1
7.046170333E0,-2.733316040E-1,5.613327026E-2,1.002615051E1,1.003003266E1
7.056093333E0,-2.880010986E-1,5.598358154E-2,1.001836670E1,1.002266183E1
7.066016333E0,-2.966830444E-1,6.002517700E-2,1.000923569E1,1.001381161E1
7.075939333E0,-3.101550293E-1,5.643264771E-2,1.002016296E1,1.002512078E1
7.085863333E0,-2.909948730E-1,5.493576050E-2,1.002674927E1,1.003112141E1
7.095786333E0,-3.055146790E-1,4.355941772E-2,1.000070343E1,1.000546379E1
7.105709333E0,-2.956352234E-1,4.954696655E-2,9.997110901E0,1.000160394E1
7.115632333E0,-3.219804382E-1,5.209167480E-2,9.996811523E0,1.000213105E1
7.125555333E0,-3.182382202E-1,4.460723877E-2,1.002076172E1,1.002591297E1
7.135478333E0,-3.047662354E-1,4.236190796E-2,1.001267853E1,1.001740527E1
7.145401333E0,-3.179388428E-1,3.128494263E-2,1.000848724E1,1.001358481E1
7.155325333E0,-3.068618774E-1,4.191284180E-2,1.004411316E1,1.004888701E1
7.165248333E0,-3.141966248E-1,3.083587646E-2,1.006147705E1,1.006642890E1
7.175171333E0,-3.200344849E-1,1.990859985E-2,1.003258713E1,1.003771004E1
7.185094333E0,-3.397933960E-1,1.332229614E-2,9.990973663E0,9.996759064E0
7.195017333E0,-3.641926575E-1,-1.047821045E-3,1.001642075E1,1.002303956E1
7.204940333E0,-3.638932800E-1,-4.490661621E-4,1.004067032E1,1.004726226E1
7.214863333E0,-3.499722290E-1,-3.143463135E-3,1.004441254E1,1.005050813E1
7.224786333E0,-3.363505554E-1,-1.152603149E-2,1.000369720E1,1.000935674E1
7.234710333E0,-3.353027344E-1,-1.167572021E-2,9.994715881E0,1.000034548E1
7.244633333E0,-3.586541748E-1,-1.481918335E-2,1.001387604E1,1.002030767E1
7.254556333E0,-3.745211792E-1,-1.691482544E-2,1.002106110E1,1.002807149E1
7.264479333E0,-3.731739807E-1,-1.317260742E-2,1.000175125E1,1.000871922E1
7.274402333E0,-3.707789612E-1,-1.496887207E-2,9.982591095E0,9.989485776E0
7.284325333E0,-3.574566650E-1,-1.721420288E-2,9.961634674E0,9.968060843E0
7.294248333E0,-3.444337463E-1,-1.167572021E-2,9.981692963E0,9.987640629E0
7.304172333E0,-3.460803223E-1,-9.430389404E-3,9.951156464E0,9.957177084E0
7.314095333E0,-3.418890381E-1,1.197509766E-3,9.932595062E0,9.938477460E0
7.324018333E0,-3.435356140E-1,-3.891906738E-3,9.939480743E0,9.945416498E0
7.333941333E0,-3.390449524E-1,3.891906738E-3,9.936337280E0,9.942120758E0
7.343864333E0,-3.451821899E-1,7.484436035E-3,9.906549225E0,9.912563962E0
7.353787333E0,-3.373983765E-1,1.302291870E-2,9.902657318E0,9.908412043E0
7.363710333E0,-3.451821899E-1,1.526824951E-2,9.895771637E0,9.901801864E0
7.373634333E0,-3.406915283E-1,1.616638184E-2,9.889484711E0,9.895364567E0
7.383557333E0,-3.327580261E-1,1.511856079E-2,9.864786072E0,9.870408336E0
7.393480333E0,-3.324586487E-1,2.844085693E-2,9.852212219E0,9.857860987E0
7.403403333E0,-3.128494263E-1,2.679428101E-2,9.830058289E0,9.835071868E0
7.413326333E0,-3.245251465E-1,3.278182983E-2,9.831555176E0,9.836964389E0
7.423249333E0,-3.222798157E-1,3.158432007E-2,9.817634125E0,9.822973158E0
7.433172333E0,-3.080593872E-1,2.739303589E-2,9.805209961E0,9.810086307E0
7.443096333E0,-3.149450684E-1,3.876937866E-2,9.794132996E0,9.799272146E0
7.453019333E0,-3.125500488E-1,2.888992310E-2,9.795031128E0,9.800059028E0
7.462942333E0,-3.098556519E-1,3.487747192E-2,9.803563385E0,9.808520888E0
7.472865333E0,-3.029699707E-1,4.490661621E-2,9.784852295E0,9.789644623E0
7.482788333E0,-2.968327332E-1,4.445755005E-2,9.774972839E0,9.779579754E0
7.492711333E0,-2.871029663E-1,3.592529297E-2,9.773026886E0,9.777309101E0
7.502634333E0,-2.927911377E-1,3.427871704E-2,9.786947937E0,9.791386603E0
7.512557333E0,-2.894979858E-1,3.757186890E-2,9.805958405E0,9.810302797E0
7.522481333E0,-2.859054565E-1,3.832031250E-2,9.794582062E0,9.798828917E0
7.532404333E0,-2.942880249E-1,3.323089600E-2,9.795031128E0,9.799507362E0
7.542327333E0,-2.945874023E-1,2.649490356E-2,9.820029144E0,9.824482486E0
7.552250333E0,-2.944377136E-1,2.275268555E-2,9.819729767E0,9.824169377E0
7.562173333E0,-2.933898926E-1,1.437011719E-2,9.808353424E0,9.812750941E0
7.572096333E0,-2.993774414E-1,1.960922241E-2,9.808503113E0,9.813090476E0
7.582019333E0,-2.965333557E-1,1.960922241E-2,9.824819183E0,9.829312720E0
7.591943333E0,-2.948867798E-1,1.661544800E-2,9.836644592E0,9.841077742E0
7.601866333E0,-2.927911377E-1,1.736389160E-2,9.815688171E0,9.820069370E0
7.611789333E0,-2.995271301E-1,1.481918335E-2,9.816286926E0,9.820866822E0
7.621712333E0,-3.013233948E-1,8.831634521E-3,9.813293152E0,9.817922197E0
7.631635333E0,-3.011737061E-1,8.831634521E-3,9.819280701E0,9.823902335E0
7.641558333E0,-3.005749512E-1,5.987548828E-3,9.820627899E0,9.825228419E0
7.651481333E0,-2.883004761E-1,1.197509766E-2,9.810000000E0,9.814242740E0
7.661405333E0,-2.911445618E-1,1.781295776E-2,9.812844086E0,9.817178388E0
7.671328333E0,-2.903961182E-1,9.280700684E-3,9.827363892E0,9.831657902E0
7.681251333E0,-3.004252625E-1,9.131011963E-3,9.831704865E0,9.836298046E0
7.691174333E0,-3.073109436E-1,1.901046753E-2,9.815688171E0,9.820516060E0
7.701097333E0,-3.020718384E-1,2.335144043E-2,9.815538483E0,9.820213256E0
7.711020333E0,-3.098556519E-1,2.874023438E-2,9.821675720E0,9.826604219E0
7.720943333E0,-3.028202820E-1,2.395019531E-2,9.828860779E0,9.833553678E0
7.730866333E0,-2.938389587E-1,2.948867798E-2,9.820927277E0,9.825366328E0
7.740790333E0,-2.923420715E-1,4.116439819E-2,9.804910583E0,9.809354206E0
7.750713333E0,-2.948867798E-1,3.757186890E-2,9.802365875E0,9.806872417E0
7.760636333E0,-2.921923828E-1,3.128494263E-2,9.819280701E0,9.823676940E0
7.770559333E0,-2.856060791E-1,4.385879517E-2,9.809101868E0,9.813356912E0
7.780482333E0,-2.797682190E-1,5.777984619E-2,9.795180817E0,9.799345692E0
7.790406875E0,-2.719844055E-1,4.805007935E-2,9.800120544E0,9.804011782E0
7.800329875E0,-2.665956116E-1,5.718109131E-2,9.819879456E0,9.823664053E0
7.810253875E0,-2.381547546E-1,4.939727783E-2,9.815388794E0,9.818401853E0
7.820176875E0,-2.441423035E-1,4.999603271E-2,9.807904358E0,9.811069919E0
7.830099875E0,-2.409988403E-1,5.224136353E-2,9.805808716E0,9.808908919E0
7.840022875E0,-2.335144043E-1,4.026626587E-2,9.848470001E0,9.851320303E0
7.849945875E0,-2.306703186E-1,4.071533203E-2,9.851463776E0,9.854248072E0
7.859868875E0,-2.233355713E-1,4.026626587E-2,9.858199768E0,9.860811468E0
7.869791875E0,-2.243833923E-1,3.682342529E-2,9.877958679E0,9.880575466E0
7.879714875E0,-2.122586060E-1,4.490661621E-2,9.904752960E0,9.907128823E0
7.889638875E0,-2.034269714E-1,3.367996216E-2,9.909542999E0,9.911688016E0
7.899561875E0,-2.043251038E-1,3.308120728E-2,9.909542999E0,9.911704473E0
7.909484875E0,-2.002835083E-1,2.290237427E-2,9.921069031E0,9.923116885E0
7.919407875E0,-1.999841309E-1,2.559677124E-2,9.949509888E0,9.951552434E0
7.929330875E0,-1.899549866E-1,2.035766602E-2,9.957293701E0,9.959126226E0
7.939253875E0,-1.880090332E-1,9.131011963E-3,9.964478760E0,9.966256455E0
7.949176875E0,-1.917512512E-1,9.131011963E-3,9.972112885E0,9.973960462E0
7.959100875E0,-1.902543640E-1,1.062789917E-2,9.984387360E0,9.986205517E0
7.969023875E0,-1.821711731E-1,1.122665405E-2,9.990823975E0,9.992490984E0
7.978946875E0,-1.784289551E-1,6.436614990E-3,9.993668060E0,9.995262859E0
7.988869875E0,-1.827699280E-1,8.532257080E-3,9.995763702E0,9.997438154E0
7.998792875E0,-1.796264648E-1,6.885681152E-3,1.000714005E1,1.000875442E1
8.008715875E0,-1.823208618E-1,9.280700684E-3,1.001282822E1,1.001449229E1
8.018638875E0,-1.790277100E-1,1.691482544E-2,1.002390518E1,1.002551805E1
8.028561875E0,-1.701960754E-1,2.395019531E-2,1.001971390E1,1.002118790E1
8.038485875E0,-1.700463867E-1,2.260299683E-2,1.002989273E1,1.003135957E1
8.048408875E0,-1.681004333E-1,1.886077881E-2,1.003947281E1,1.004089776E1
8.058331875E0,-1.707948303E-1,2.380050659E-2,1.004770569E1,1.004918539E1
8.068254875E0,-1.682501221E-1,4.266128540E-2,1.005249573E1,1.005399415E1
8.078177875E0,-1.760339355E-1,3.412902832E-2,1.005399261E1,1.005559149E1
8.088100875E0,-1.754351807E-1,3.951782227E-2,1.005533981E1,1.005694774E1
8.098023875E0,-1.802252197E-1,4.849914551E-2,1.005354355E1,1.005527579E1
8.107947875E0,-1.761836243E-1,5.628295898E-2,1.004516098E1,1.004686357E1
8.117870875E0,-1.707948303E-1,6.436614990E-2,1.004231689E1,1.004397543E1
8.127793875E0,-1.682501221E-1,7.050338745E-2,1.003408401E1,1.003574217E1
8.137716875E0,-1.649569702E-1,7.035369873E-2,1.003468277E1,1.003628511E1
8.147639875E0,-1.695973206E-1,7.244934082E-2,1.002345612E1,1.002515260E1
8.157562875E0,-1.631607056E-1,7.708969116E-2,1.002225861E1,1.002388307E1
8.167485875E0,-1.669029236E-1,7.694000244E-2,1.003138962E1,1.003307301E1
8.177408875E0,-1.657054138E-1,8.202941895E-2,1.002749771E1,1.002920223E1
8.187332875E0,-1.706451416E-1,7.349716187E-2,1.000564316E1,1.000736812E1
8.197255875E0,-1.691482544E-1,7.155120850E-2,1.001507355E1,1.001675740E1
8.207178875E0,-1.610650635E-1,7.574249268E-2,1.004186783E1,1.004344504E1
8.217101875E0,-1.670526123E-1,8.442443848E-2,1.005204666E1,1.005378914E1
8.227024875E0,-1.669029236E-1,8.367599487E-2,1.004396347E1,1.004569860E1
8.236947875E0,-1.640588379E-1,7.289840698E-2,1.005040009E1,1.005200335E1
8.246870875E0,-1.477427673E-1,7.095245361E-2,1.006192612E1,1.006326087E1
8.256793875E0,-1.419049072E-1,6.152206421E-2,1.008033783E1,1.008152433E1
8.266717875E0,-1.463955688E-1,6.511459351E-2,1.009620483E1,1.009747610E1
8.276640875E0,-1.401086426E-1,5.508544922E-2,1.009081604E1,1.009193902E1
8.286563875E0,-1.321751404E-1,5.089416504E-2,1.010084518E1,1.010183815E1
8.296486875E0,-1.344204712E-1,3.547622681E-2,1.011790970E1,1.011886476E1
8.306409875E0,-1.263372803E-1,3.203338623E-2,1.012314880E1,1.012398780E1
8.316332875E0,-1.160087585E-1,2.814147949E-2,1.012105316E1,1.012175711E1
8.326255875E0,-1.240919495E-1,2.484832764E-2,1.011581406E1,1.011660567E1
8.336179875E0,-1.065783691E-1,2.874023438E-2,1.011326935E1,1.011387175E1
8.346102875E0,-1.070274353E-1,2.484832764E-2,1.011237122E1,1.011296811E1
8.356025875E0,-9.759704590E-2,2.275268555E-2,1.010488678E1,1.010538370E1
8.365948875E0,-7.349716187E-2,1.901046753E-2,1.007869125E1,1.007897716E1
8.375871875E0,-8.696914673E-2,1.901046753E-2,1.009695328E1,1.009734572E1
8.385794875E0,-8.741821289E-2,1.481918335E-2,1.012299911E1,1.012338741E1
8.395717875E0,-9.639953613E-2,1.511856079E-2,1.014485367E1,1.014532293E1
8.405640875E0,-8.906478882E-2,3.038681030E-2,1.012464569E1,1.012508302E1
8.415564875E0,-8.113128662E-2,2.933898926E-2,1.012674133E1,1.012710882E1
8.425487875E0,-9.355545044E-2,2.993774414E-2,1.010249176E1,1.010296930E1
8.435410875E0,-7.933502197E-2,3.532653809E-2,1.010204269E1,1.010241598E1
8.445333875E0,-8.322692871E-2,3.667373657E-2,1.009276199E1,1.009317177E1
8.455256875E0,-9.310638428E-2,3.278182983E-2,1.009605515E1,1.009653767E1
8.465179875E0,-9.834548950E-2,4.131408691E-2,1.009006760E1,1.009063144E1
8.475102875E0,-7.080276489E-2,4.670288086E-2,1.007779312E1,1.007815005E1
8.485025875E0,-8.711883545E-2,4.236190796E-2,1.007240433E1,1.007287015E1
8.494949875E0,-8.876541138E-2,5.493576050E-2,1.005548950E1,1.005603134E1
8.504872875E0,-8.666976929E-2,5.658233643E-2,1.005114853E1,1.005168145E1
8.514795875E0,-8.921447754E-2,4.700225830E-2,1.003528152E1,1.003578815E1
8.524718875E0,-8.771759033E-2,5.568420410E-2,1.002914429E1,1.002968246E1
8.534641875E0,-1.049317932E-1,6.047424316E-2,1.003573059E1,1.003646134E1
8.544564875E0,-1.112187195E-1,5.763015747E-2,1.003393433E1,1.003471618E1
8.554487875E0,-1.040336609E-1,5.957611084E-2,1.000564316E1,1.000636134E1
8.564411875E0,-9.864486694E-2,6.256988525E-2,9.977501678E0,9.978185484E0
8.574334875E0,-1.052311707E-1,7.873626709E-2,9.960886230E0,9.961753234E0
8.584257875E0,-9.819580078E-2,7.454498291E-2,9.963580627E0,9.964343345E0
8.594180875E0,-1.079255676E-1,7.259902954E-2,9.971065063E0,9.971913410E0
8.604103875E0,-1.074765015E-1,7.349716187E-2,9.983638916E0,9.984487921E0
8.614026875E0,-9.819580078E-2,6.406677246E-2,9.978399811E0,9.979088623E0
8.623949875E0,-1.089733887E-1,5.583389282E-2,9.970466309E0,9.971218132E0
8.633872875E0,-1.076261902E-1,5.194198608E-2,9.985135803E0,9.985850909E0
8.643796875E0,-1.136137390E-1,5.164260864E-2,9.966724091E0,9.967505412E0
8.653719875E0,-1.115180969E-1,3.876937866E-2,9.969568176E0,9.970267247E0
8.663642875E0,-1.164578247E-1,3.143463135E-2,9.962233429E0,9.962963688E0
8.673565875E0,-1.161584473E-1,2.155517578E-2,9.963430939E0,9.964131346E0
8.683488875E0,-1.199006653E-1,2.125579834E-2,9.965526581E0,9.966270517E0
8.693411875E0,-1.083746338E-1,2.170486450E-2,9.951455841E0,9.952069610E0
8.703334875E0,-1.152603149E-1,2.050735474E-2,9.948162689E0,9.948851511E0
8.713257875E0,-1.071771240E-1,1.766326904E-2,9.946665802E0,9.947258894E0
8.723181875E0,-1.005908203E-1,1.930984497E-2,9.933193817E0,9.933721900E0
8.733104875E0,-1.019380188E-1,1.511856079E-2,9.921518097E0,9.922053279E0
8.743027875E0,-1.020877075E-1,2.110610962E-2,9.913285217E0,9.913833324E0
8.752950875E0,-9.026229858E-2,1.511856079E-2,9.902807007E0,9.903229901E0
8.762873875E0,-8.951385498E-2,1.317260742E-2,9.900112610E0,9.900526043E0
8.772796875E0,-1.010398865E-1,1.511856079E-2,9.908046112E0,9.908572823E0
8.782719875E0,-1.031355286E-1,1.511856079E-2,9.906698914E0,9.907247290E0
8.792646583E0,-9.879455566E-2,2.245330811E-2,9.882449341E0,9.882968658E0
8.802569583E0,-9.654922485E-2,2.709365845E-2,9.873767395E0,9.874276601E0
8.812492583E0,-8.891510010E-2,3.038681030E-2,9.858948212E0,9.859395980E0
8.822415583E0,-7.544311523E-2,3.562591553E-2,9.842183075E0,9.842536693E0
8.832338583E0,-7.170089722E-2,3.802093506E-2,9.830058289E0,9.830393307E0
8.842261583E0,-7.933502197E-2,4.849914551E-2,9.809101868E0,9.809542582E0
8.852184583E0,-8.053253174E-2,5.269042969E-2,9.818981323E0,9.819452938E0
8.862107583E0,-8.816665649E-2,6.077362061E-2,9.816735992E0,9.817320018E0
8.872031583E0,-9.879455566E-2,6.301895142E-2,9.800270233E0,9.800970788E0
8.881954583E0,-1.055305481E-1,6.691085815E-2,9.773326263E0,9.774125025E0
8.891877583E0,-1.040336609E-1,6.735992432E-2,9.766739960E0,9.767526289E0
8.901800583E0,-1.041833496E-1,7.319778442E-2,9.777068481E0,9.777897534E0
8.911723583E0,-1.022373962E-1,6.975494385E-2,9.758207703E0,9.758992561E0
8.921646583E0,-1.089733887E-1,6.825805664E-2,9.743238831E0,9.744087298E0
8.931569583E0,-1.046324158E-1,7.334747314E-2,9.737550659E0,9.738389016E0
8.941492583E0,-1.118174744E-1,7.200027466E-2,9.741592255E0,9.742500030E0
8.951416583E0,-1.115180969E-1,6.466552734E-2,9.749226379E0,9.750078611E0
8.961339583E0,-1.246907043E-1,6.137237549E-2,9.746232605E0,9.747223416E0
8.971262583E0,-1.297801208E-1,6.167175293E-2,9.741592255E0,9.742651895E0
8.981185583E0,-1.350192261E-1,5.733078003E-2,9.757459259E0,9.758561790E0
8.991108583E0,-1.510359192E-1,5.807922363E-2,9.765542450E0,9.766883044E0
9.001031583E0,-1.417552185E-1,5.059478760E-2,9.759105835E0,9.760266445E0
9.010954583E0,-1.401086426E-1,5.298980713E-2,9.757608948E0,9.758758667E0
9.020877583E0,-1.429527283E-1,4.505630493E-2,9.763147430E0,9.764297891E0
9.030801583E0,-1.523831177E-1,3.921844482E-2,9.787247314E0,9.788512078E0
9.040724583E0,-1.541793823E-1,4.071533203E-2,9.780062256E0,9.781362213E0
9.050647583E0,-1.655557251E-1,2.619552612E-2,9.770332489E0,9.771770149E0
9.060570583E0,-1.634600830E-1,3.083587646E-2,9.776619415E0,9.778034426E0
9.070493583E0,-1.678010559E-1,1.437011719E-2,9.786947937E0,9.788396887E0
9.080416583E0,-1.615141296E-1,1.481918335E-2,9.791288910E0,9.792632176E0
9.090339583E0,-1.558259583E-1,1.002914429E-2,9.792935486E0,9.794180300E0
9.100262583E0,-1.700463867E-1,2.993774414E-4,9.796378326E0,9.797854060E0
9.110186583E0,-1.709445190E-1,4.191284180E-3,9.800120544E0,9.801612229E0
9.120109583E0,-1.740879822E-1,3.293151855E-3,9.803862762E0,9.805408841E0
9.130032583E0,-1.743873596E-1,-1.047821045E-3,9.801168365E0,9.802719693E0
9.139955583E0,-1.851649475E-1,-3.592529297E-3,9.807455292E0,9.809203753E0
9.149878583E0,-1.929487610E-1,1.137634277E-2,9.817334747E0,9.819237251E0
9.159801583E0,-1.874102783E-1,1.661544800E-2,9.828860779E0,9.830661366E0
9.169724583E0,-1.935475159E-1,4.191284180E-3,9.818382568E0,9.820290956E0
9.179647583E0,-1.933978271E-1,1.691482544E-2,9.820478210E0,9.822396913E0
9.189571583E0,-1.962419128E-1,1.766326904E-2,9.832752686E0,9.834726649E0
9.199494583E0,-2.070195007E-1,2.380050659E-2,9.830207977E0,9.832416408E0
9.209417583E0,-1.989363098E-1,2.589614868E-2,9.829609222E0,9.831656205E0
9.219340583E0,-1.878593445E-1,3.263214111E-2,9.819430389E0,9.821281442E0
9.229263583E0,-1.960922241E-1,3.712280273E-2,9.823471985E0,9.825499076E0
9.239186583E0,-2.050735474E-1,4.370910645E-2,9.825268250E0,9.827505371E0
9.249109583E0,-1.845661926E-1,5.179229736E-2,9.814790039E0,9.816661888E0
9.259032583E0,-1.812730408E-1,6.286926270E-2,9.815837860E0,9.817712837E0
9.268956583E0,-1.839674377E-1,6.047424316E-2,9.798923035E0,9.800836382E0
9.278879583E0,-1.874102783E-1,6.765930176E-2,9.810149689E0,9.812172915E0
9.288802583E0,-1.919009399E-1,6.646179199E-2,9.802515564E0,9.804619040E0
9.298725583E0,-1.898052979E-1,6.511459351E-2,9.810299377E0,9.812351392E0
9.308648583E0,-1.860630798E-1,6.451583862E-2,9.800719299E0,9.802697616E0
9.318571583E0,-1.776805115E-1,7.304809570E-2,9.812694397E0,9.814574760E0
9.328494583E0,-1.965412903E-1,6.002517700E-2,9.827214203E0,9.829362670E0
9.338417583E0,-1.874102783E-1,6.256988525E-2,9.845925293E0,9.847907518E0
9.348341583E0,-1.922003174E-1,5.478607178E-2,9.857900391E0,9.859926094E0
9.358264583E0,-2.016307068E-1,4.999603271E-2,9.866282959E0,9.868469687E0
9.368187583E0,-2.131567383E-1,5.104385376E-2,9.893376617E0,9.895804271E0
9.378110583E0,-2.145039368E-1,3.742218018E-2,9.906848602E0,9.909241222E0
9.388033583E0,-2.308200073E-1,3.622467041E-2,9.901908875E0,9.904665035E0
9.397956583E0,-2.219883728E-1,4.191284180E-2,9.915081482E0,9.917654779E0
9.407879583E0,-2.282752991E-1,3.173400879E-2,9.943073273E0,9.945743952E0
9.417802583E0,-2.378553772E-1,2.380050659E-2,9.949958954E0,9.952829991E0
9.427726583E0,-2.392025757E-1,2.469863892E-2,9.948761444E0,9.951667306E0
9.437649583E0,-2.363584900E-1,1.901046753E-2,9.954449615E0,9.957273416E0
9.447572583E0,-2.433938599E-1,2.305206299E-2,9.957293701E0,9.960294665E0
9.457495583E0,-2.442919922E-1,2.814147949E-2,9.959389343E0,9.962424736E0
9.467418583E0,-2.490820312E-1,2.814147949E-2,9.961934052E0,9.965087247E0
9.477341583E0,-2.499801636E-1,2.484832764E-2,9.970915375E0,9.974079453E0
9.487264583E0,-2.537223816E-1,2.544708252E-2,9.978699188E0,9.981956727E0
9.497187583E0,-2.637515259E-1,2.963836670E-2,9.989027710E0,9.992553122E0
9.507111583E0,-2.655477905E-1,2.409988403E-2,9.984387360E0,9.987947105E0
9.517034583E0,-2.791694641E-1,1.945953369E-2,9.999954987E0,1.000386995E1
9.526957583E0,-2.778222656E-1,1.975891113E-2,1.001537292E1,1.001924500E1
9.536880583E0,-2.841091919E-1,3.053649902E-2,1.001746857E1,1.002154314E1
9.546803583E0,-2.803669739E-1,2.260299683E-2,1.003168900E1,1.003563155E1
9.556726583E0,-2.953358459E-1,2.589614868E-2,1.003962250E1,1.004399889E1
9.566649583E0,-2.914439392E-1,3.173400879E-2,1.003004242E1,1.003432596E1
9.576572583E0,-2.893482971E-1,4.670288086E-2,1.003812561E1,1.004240357E1
9.586496583E0,-2.878514099E-1,3.817062378E-2,1.004246658E1,1.004666365E1
9.596419583E0,-2.911445618E-1,3.278182983E-2,1.005174728E1,1.005601627E1
9.606342583E0,-2.906954956E-1,3.817062378E-2,1.003588028E1,1.004016204E1
9.616265583E0,-2.818638611E-1,3.981719971E-2,1.003917343E1,1.004320844E1
9.626188583E0,-2.936892700E-1,5.149291992E-2,1.005010071E1,1.005452282E1
9.636111583E0,-2.900967407E-1,5.029541016E-2,1.005294479E1,1.005725533E1
9.646034583E0,-2.981799316E-1,5.284011841E-2,1.003962250E1,1.004418853E1
9.655957583E0,-2.887495422E-1,5.733078003E-2,1.003498215E1,1.003929927E1
9.665881583E0,-2.965333557E-1,5.269042969E-2,1.002914429E1,1.003366550E1
9.675804583E0,-2.914439392E-1,5.269042969E-2,1.004171814E1,1.004608476E1
9.685727583E0,-2.877017212E-1,5.882766724E-2,1.004845413E1,1.005274407E1
9.695650583E0,-2.956352234E-1,5.897735596E-2,1.005219635E1,1.005671567E1
9.705573583E0,-3.008743286E-1,5.763015747E-2,1.006851242E1,1.007317174E1
9.715496583E0,-2.959346008E-1,4.580474854E-2,1.008647507E1,1.009091942E1
9.725419583E0,-2.764750671E-1,4.760101318E-2,1.007045837E1,1.007436530E1
9.735342583E0,-2.905458069E-1,4.400848389E-2,1.008512787E1,1.008940820E1
9.745266583E0,-2.695893860E-1,3.891906738E-2,1.007884094E1,1.008252091E1
9.755189583E0,-2.736309814E-1,3.113525391E-2,1.009874954E1,1.010250393E1
9.765112583E0,-2.826123047E-1,2.365081787E-2,1.006956024E1,1.007355312E1
9.775035583E0,-2.764750671E-1,1.916015625E-2,1.007958939E1,1.008339862E1
9.784958583E0,-2.933898926E-1,1.975891113E-2,1.011431717E1,1.011859080E1
9.794881833E0,-2.755769348E-1,1.422042847E-2,1.014410522E1,1.014785769E1
9.804804833E0,-2.851570129E-1,9.280700684E-3,1.017284546E1,1.017684555E1
9.814727833E0,-2.742297363E-1,-1.945953369E-3,1.013692017E1,1.014062898E1
9.824650833E0,-2.796185303E-1,-5.837860107E-3,1.009680359E1,1.010067638E1
9.834574833E0,-2.908451843E-1,-1.257385254E-2,1.012299911E1,1.012718421E1
9.844497833E0,-2.983296204E-1,-3.592529297E-3,1.011985565E1,1.012425266E1
9.854420833E0,-2.968327332E-1,2.095642090E-3,1.010383896E1,1.010819844E1
9.864343833E0,-3.013233948E-1,5.688171387E-3,1.007674530E1,1.008125111E1
9.874266833E0,-3.215313721E-1,1.197509766E-3,1.010713211E1,1.011224522E1
9.884189833E0,-2.954855347E-1,-1.347198486E-3,1.012763947E1,1.013194920E1
9.894112833E0,-3.044668579E-1,1.347198486E-3,1.010114456E1,1.010573220E1
9.904035833E0,-3.119512939E-1,8.532257080E-3,1.008033783E1,1.008516719E1
9.913959833E0,-3.147953796E-1,2.395019531E-2,1.006072861E1,1.006568079E1
9.923882833E0,-3.028202820E-1,3.068618774E-2,1.007914032E1,1.008373499E1
9.933805833E0,-3.107537842E-1,3.248245239E-2,1.005728577E1,1.006213794E1
9.943728833E0,-3.059637451E-1,4.056564331E-2,1.001746857E1,1.002222210E1
9.953651833E0,-3.245251465E-1,4.535568237E-2,1.002270767E1,1.002806276E1
9.963574833E0,-3.260220337E-1,3.951782227E-2,1.005938141E1,1.006474075E1
9.973497833E0,-3.231779480E-1,2.784210205E-2,1.006836273E1,1.007358661E1
9.983420833E0,-3.213816833E-1,2.574645996E-2,1.001746857E1,1.002265561E1
9.993344833E0,-3.255729675E-1,2.365081787E-2,9.996512146E0,1.000184044E1
1.000326783E1,-3.299139404E-1,3.727249146E-2,1.000459534E1,1.001010291E1
1.001319083E1,-3.195854187E-1,4.370910645E-2,1.002210892E1,1.002729836E1
1.002311383E1,-3.351530457E-1,5.044509888E-2,9.982740784E0,9.988492670E0
1.003303683E1,-3.279679871E-1,4.730163574E-2,9.946067047E0,9.951585308E0
1.004295983E1,-3.303630066E-1,5.254074097E-2,9.928703156E0,9.934336747E0
1.005288283E1,-3.080593872E-1,4.700225830E-2,9.946366425E0,9.951246899E0
1.006280583E1,-3.227288818E-1,5.343887329E-2,9.953850861E0,9.959224699E0
1.007272983E1,-3.065625000E-1,5.194198608E-2,9.950258331E0,9.955115238E0
1.008265283E1,-3.167413330E-1,4.281097412E-2,9.972711639E0,9.977832194E0
1.009257583E1,-3.170407104E-1,3.936813354E-2,9.984237671E0,9.989347653E0
1.010249883E1,-3.065625000E-1,4.775070190E-2,9.940678253E0,9.945518832E0
1.011242183E1,-2.966830444E-1,3.412902832E-2,9.906998291E0,9.911498411E0
1.012234483E1,-3.077600098E-1,2.739303589E-2,9.927805023E0,9.932611901E0
1.013226783E1,-3.291654968E-1,1.945953369E-2,9.957593079E0,9.963051165E0
1.014219083E1,-3.113525391E-1,3.472778320E-2,9.955946503E0,9.960874318E0
1.015211383E1,-3.019221497E-1,2.320175171E-2,9.942923584E0,9.947533599E0
1.016203783E1,-3.050656128E-1,1.945953369E-2,9.954449615E0,9.959142074E0
1.017196083E1,-2.871029663E-1,1.077758789E-2,9.992919617E0,9.997048901E0
1.018188383E1,-3.014730835E-1,1.242416382E-2,9.972861328E0,9.977424690E0
1.019180683E1,-2.884501648E-1,1.032852173E-2,9.914482727E0,9.918683276E0
1.020172983E1,-2.766247559E-1,5.837860107E-3,9.891730042E0,9.895598949E0
1.021165283E1,-2.642005920E-1,-7.484436035E-4,9.916428680E0,9.919947595E0
1.022157583E1,-2.835104370E-1,-7.035369873E-3,9.914632416E0,9.918687595E0
1.023149883E1,-2.621049500E-1,-1.317260742E-2,9.902058563E0,9.905535640E0
1.024142283E1,-2.529739380E-1,-4.640350342E-3,9.885143738E0,9.888381266E0
1.025134583E1,-2.565664673E-1,-5.837860107E-3,9.921518097E0,9.924836612E0
1.026126883E1,-2.582130432E-1,-8.831634521E-3,9.923763428E0,9.927126097E0
1.027119183E1,-2.520758057E-1,-8.083190918E-3,9.903555450E0,9.906766279E0
1.028111483E1,-2.429447937E-1,-6.885681152E-3,9.864187317E0,9.867181006E0
1.029103783E1,-2.555186462E-1,-7.933502197E-3,9.870324554E0,9.873634565E0
1.030096083E1,-2.520758057E-1,3.293151855E-3,9.882000275E0,9.885215348E0
1.031088383E1,-2.487826538E-1,3.592529297E-3,9.859397278E0,9.862536205E0
1.032080683E1,-2.525248718E-1,8.681945801E-3,9.833351440E0,9.836597213E0
1.033073083E1,-2.553689575E-1,1.796264648E-2,9.837093658E0,9.840424158E0
1.034065383E1,-2.658471680E-1,2.529739380E-2,9.839788055E0,9.843411180E0
1.035057683E1,-2.592608643E-1,2.499801636E-2,9.826765137E0,9.830216384E0
1.036049983E1,-2.558180237E-1,3.173400879E-2,9.788444824E0,9.791838540E0
1.037042283E1,-2.568658447E-1,3.532653809E-2,9.771829376E0,9.775268660E0
1.038034583E1,-2.649490356E-1,4.086502075E-2,9.792037354E0,9.795706380E0
1.039026883E1,-2.514770508E-1,3.323089600E-2,9.793234863E0,9.796519488E0
1.040019183E1,-2.697390747E-1,3.487747192E-2,9.765692139E0,9.769478929E0
1.041011583E1,-2.625540161E-1,3.053649902E-2,9.760752411E0,9.764330736E0
1.042003883E1,-2.664459229E-1,2.859054565E-2,9.788744202E0,9.792411546E0
1.042996183E1,-2.468367004E-1,2.829116821E-2,9.802066498E0,9.805214754E0
1.043988483E1,-2.436932373E-1,2.724334717E-2,9.778565369E0,9.781639395E0
1.044980783E1,-2.519261169E-1,2.454895020E-2,9.778715057E0,9.781990472E0
1.045973083E1,-2.451901245E-1,2.320175171E-2,9.808353424E0,9.811445022E0
1.046965383E1,-2.589614868E-1,2.275268555E-2,9.805060272E0,9.808505782E0
1.047957683E1,-2.484832764E-1,2.005828857E-2,9.786947937E0,9.790122379E0
1.048950083E1,-2.477348328E-1,1.362167358E-2,9.784403229E0,9.787548449E0
1.049942383E1,-2.468367004E-1,9.131011963E-3,9.808952179E0,9.812061689E0
1.050934683E1,-2.445913696E-1,8.981323242E-3,9.827363892E0,9.830411317E0
1.051926983E1,-2.362088013E-1,1.107696533E-2,9.828860779E0,9.831704914E0
1.052919283E1,-2.255809021E-1,7.933502197E-3,9.818981323E0,9.821575429E0
1.053911583E1,-2.251318359E-1,3.742218018E-3,9.829309845E0,9.831888444E0
1.054903883E1,-2.089654541E-1,2.395019531E-3,9.845176849E0,9.847394554E0
1.055896183E1,-2.160008240E-1,-2.395019531E-3,9.847422180E0,9.849791149E0
1.056888483E1,-2.091151428E-1,3.143463135E-3,9.820777588E0,9.823004197E0
1.057880883E1,-2.077679443E-1,6.436614990E-3,9.825867004E0,9.828065493E0
1.058873183E1,-2.227368164E-1,7.484436035E-3,9.855355682E0,9.857875194E0
1.059865483E1,-2.089654541E-1,4.340972900E-3,9.864187317E0,9.866401412E0
1.060857783E1,-2.032772827E-1,7.634124756E-3,9.841284943E0,9.843387082E0
1.061850083E1,-1.962419128E-1,7.334747314E-3,9.833052063E0,9.835012840E0
1.062842383E1,-1.887574768E-1,6.137237549E-3,9.853858795E0,9.855668430E0
1.063834683E1,-1.860630798E-1,1.077758789E-2,9.855954437E0,9.857716444E0
1.064826983E1,-1.835183716E-1,1.496887207E-2,9.848020935E0,9.849742098E0
1.065819383E1,-1.808239746E-1,1.362167358E-2,9.848470001E0,9.850139300E0
1.066811683E1,-1.752854919E-1,1.721420288E-2,9.861792297E0,9.863364976E0
1.067803983E1,-1.619631958E-1,1.616638184E-2,9.868827667E0,9.870169854E0
1.068796283E1,-1.678010559E-1,1.676513672E-2,9.864636383E0,9.866077703E0
1.069788583E1,-1.645079041E-1,2.409988403E-2,9.855954437E0,9.857356721E0
1.070780883E1,-1.499880981E-1,2.844085693E-2,9.865833893E0,9.867014934E0
1.071773183E1,-1.472937012E-1,2.230361938E-2,9.869576111E0,9.870700355E0
1.072765483E1,-1.478924561E-1,2.784210205E-2,9.866133270E0,9.867280936E0
1.073757783E1,-1.516346741E-1,3.173400879E-2,9.851014709E0,9.852232789E0
1.074750183E1,-1.420545959E-1,4.805007935E-2,9.850266266E0,9.851407708E0
1.075742483E1,-1.411564636E-1,4.685256958E-2,9.867929535E0,9.869050289E0
1.076734783E1,-1.369651794E-1,3.742218018E-2,9.855655060E0,9.856677764E0
1.077727083E1,-1.306782532E-1,4.924758911E-2,9.846673737E0,9.847663977E0
1.078719383E1,-1.369651794E-1,4.760101318E-2,9.868228912E0,9.869294158E0
1.079711621E1,-1.285826111E-1,4.430786133E-2,9.877659302E0,9.878595546E0
1.080703921E1,-1.336720276E-1,4.176315308E-2,9.893825684E0,9.894816776E0
1.081696221E1,-1.320254517E-1,4.834945679E-2,9.888885956E0,9.889885431E0
1.082688621E1,-1.395098877E-1,4.535568237E-2,9.916428680E0,9.917513697E0
1.083680921E1,-1.300794983E-1,3.203338623E-2,9.938582611E0,9.939485456E0
1.084673221E1,-1.404080200E-1,2.888992310E-2,9.958042145E0,9.959073872E0
1.085665521E1,-1.416055298E-1,2.245330811E-2,9.961934052E0,9.962965739E0
1.086657821E1,-1.460961914E-1,1.631607056E-2,9.962233429E0,9.963317982E0
1.087650121E1,-1.420545959E-1,1.721420288E-2,9.984237671E0,9.985263026E0
1.088642421E1,-1.451980591E-1,1.152603149E-2,1.000549347E1,1.000655360E1
1.089634721E1,-1.407073975E-1,8.532257080E-3,9.995464325E0,9.996458295E0
1.090627021E1,-1.336720276E-1,1.736389160E-2,9.985584869E0,9.986494625E0
1.091619421E1,-1.398092651E-1,9.580078125E-3,1.000998413E1,1.001096502E1
1.092611721E1,-1.272354126E-1,7.484436035E-3,1.002659958E1,1.002740963E1
1.093604021E1,-1.233435059E-1,8.532257080E-3,1.001941452E1,1.002017733E1
1.094596321E1,-1.278341675E-1,2.095642090E-3,1.001267853E1,1.001349476E1
1.095588621E1,-1.184037781E-1,9.879455566E-3,1.002375549E1,1.002445965E1
1.096580921E1,-1.258882141E-1,1.152603149E-2,1.004785538E1,1.004865057E1
1.097573221E1,-1.342707825E-1,1.347198486E-2,1.004396347E1,1.004486995E1
1.098565521E1,-1.356179810E-1,2.305206299E-2,1.003722748E1,1.003817011E1
1.099557921E1,-1.329235840E-1,2.320175171E-2,1.004381378E1,1.004472012E1
1.100550221E1,-1.263372803E-1,2.574645996E-2,1.005923172E1,1.006005799E1
1.101542521E1,-1.230441284E-1,2.754272461E-2,1.005593857E1,1.005672904E1
1.102534821E1,-1.152603149E-1,3.981719971E-2,1.005069946E1,1.005143920E1
1.103527121E1,-1.050814819E-1,3.562591553E-2,1.004605911E1,1.004667184E1
1.104519421E1,-1.046324158E-1,3.996688843E-2,1.005818390E1,1.005880752E1
1.105511721E1,-1.007405090E-1,4.041595459E-2,1.007644592E1,1.007703054E1
1.106504021E1,-9.924362183E-2,4.625381470E-2,1.006072861E1,1.006132441E1
1.107496321E1,-1.076261902E-1,4.535568237E-2,1.005893234E1,1.005961035E1
1.108488721E1,-1.086740112E-1,5.388793945E-2,1.005249573E1,1.005322756E1
1.109481021E1,-1.020877075E-1,5.358856201E-2,1.004875351E1,1.004941494E1
1.110473321E1,-8.711883545E-2,4.939727783E-2,1.004680756E1,1.004730670E1
1.111465621E1,-9.520202637E-2,5.493576050E-2,1.005683670E1,1.005743734E1
1.112457921E1,-1.017883301E-1,5.748046875E-2,1.006821304E1,1.006889163E1
1.113450221E1,-9.954299927E-2,5.224136353E-2,1.006506958E1,1.006569737E1
1.114442521E1,-9.684860229E-2,4.864883423E-2,1.004905289E1,1.004963732E1
1.115434821E1,-8.098159790E-2,5.777984619E-2,1.005129822E1,1.005179051E1
1.116427221E1,-8.023315430E-2,6.032455444E-2,1.005998016E1,1.006048097E1
1.117419521E1,-7.619155884E-2,5.673202515E-2,1.007135651E1,1.007180448E1
1.118411821E1,-7.873626709E-2,5.044509888E-2,1.007105713E1,1.007149124E1
1.119404121E1,-6.706054688E-2,4.146377563E-2,1.005384293E1,1.005415207E1
1.120396421E1,-7.723937988E-2,4.625381470E-2,1.006926086E1,1.006966334E1
1.121388721E1,-6.616241455E-2,4.849914551E-2,1.008363098E1,1.008396467E1
1.122381021E1,-7.499404907E-2,3.787124634E-2,1.008273285E1,1.008308286E1
1.123373321E1,-7.649093628E-2,3.936813354E-2,1.007584717E1,1.007621441E1
1.124365721E1,-5.703140259E-2,4.370910645E-2,1.008378067E1,1.008403668E1
1.125358021E1,-6.107299805E-2,4.071533203E-2,1.009440857E1,1.009467543E1
1.126350321E1,-6.885681152E-2,3.098556519E-2,1.009066635E1,1.009094885E1
1.127342621E1,-7.214996338E-2,1.841171265E-2,1.008243347E1,1.008270843E1
1.128334921E1,-6.197113037E-2,1.347198486E-2,1.007105713E1,1.007125680E1
1.129327221E1,-8.771759033E-2,1.541793823E-2,1.010698242E1,1.010737482E1
1.130319521E1,-1.077758789E-1,1.706451416E-2,1.012524445E1,1.012583241E1
1.131311821E1,-9.235794067E-2,2.305206299E-2,1.009590546E1,1.009635421E1
1.132304221E1,-1.155596924E-1,2.320175171E-2,1.007899063E1,1.007967978E1
1.133296521E1,-1.166075134E-1,1.616638184E-2,1.006956024E1,1.007024836E1
1.134288821E1,-1.151106262E-1,1.766326904E-2,1.008946884E1,1.009014093E1
1.135281121E1,-1.209484863E-1,2.424957275E-2,1.007240433E1,1.007315966E1
1.136273421E1,-1.282832336E-1,2.499801636E-2,1.006417145E1,1.006502004E1
1.137265721E1,-1.284329224E-1,3.293151855E-2,1.005429199E1,1.005516618E1
1.138258021E1,-1.151106262E-1,4.131408691E-2,1.005773483E1,1.005847838E1
1.139250321E1,-1.336720276E-1,4.026626587E-2,1.006312363E1,1.006409195E1
1.140242621E1,-1.187031555E-1,5.209167480E-2,1.003632935E1,1.003716647E1
1.141235021E1,-1.202000427E-1,5.553451538E-2,1.002615051E1,1.002702479E1
1.142227321E1,-1.212478638E-1,5.463638306E-2,1.001701950E1,1.001790227E1
1.143219621E1,-1.272354126E-1,5.852828979E-2,9.996811523E0,9.997792509E0
1.144211921E1,-1.505868530E-1,7.020401001E-2,9.990225220E0,9.991606725E0
1.145204221E1,-1.441502380E-1,6.541397095E-2,9.968370667E0,9.969627477E0
1.146196521E1,-1.344204712E-1,7.289840698E-2,9.938283234E0,9.939459577E0
1.147188821E1,-1.299298096E-1,7.649093628E-2,9.926308136E0,9.927453139E0
1.148181121E1,-1.300794983E-1,8.726852417E-2,9.912237396E0,9.913475005E0
1.149173521E1,-1.197509766E-1,7.424560547E-2,9.916578369E0,9.917579304E0
1.150165821E1,-1.321751404E-1,8.666976929E-2,9.937534790E0,9.938791658E0
1.151158121E1,-1.284329224E-1,8.412506104E-2,9.945019226E0,9.946204273E0
1.152150421E1,-1.350192261E-1,7.993377686E-2,9.917027435E0,9.918268637E0
1.153142721E1,-1.193019104E-1,6.706054688E-2,9.905351715E0,9.906297122E0
1.154135021E1,-1.179547119E-1,5.538482666E-2,9.925260315E0,9.926115711E0
1.155127321E1,-1.290316772E-1,6.137237549E-2,9.926158447E0,9.927186775E0
1.156119621E1,-1.390608215E-1,4.715194702E-2,9.926158447E0,9.927244469E0
1.157112021E1,-1.365161133E-1,4.745132446E-2,9.915680237E0,9.916733476E0
1.158104321E1,-1.341210938E-1,3.891906738E-2,9.918075256E0,9.919058421E0
1.159096621E1,-1.366658020E-1,4.355941772E-2,9.929301910E0,9.930337929E0
1.160088921E1,-1.350192261E-1,4.131408691E-2,9.930050354E0,9.931054178E0
1.161081221E1,-1.404080200E-1,4.026626587E-2,9.915829926E0,9.916905712E0
1.162073521E1,-1.353186035E-1,3.622467041E-2,9.923763428E0,9.924752084E0
1.163065821E1,-1.372645569E-1,2.380050659E-2,9.915081482E0,9.916060146E0
1.164058121E1,-1.511856079E-1,2.844085693E-2,9.901759186E0,9.902954152E0
1.165050521E1,-1.371148682E-1,2.739303589E-2,9.877808990E0,9.878798577E0
1.166042821E1,-1.495390320E-1,2.499801636E-2,9.864786072E0,9.865951098E0
1.167035121E1,-1.425036621E-1,2.125579834E-2,9.881401520E0,9.882451877E0
1.168027421E1,-1.484912109E-1,1.930984497E-2,9.873468018E0,9.874603445E0
1.169019721E1,-1.555265808E-1,1.571731567E-2,9.879455566E0,9.880692174E0
1.170012021E1,-1.463955688E-1,1.796264648E-2,9.849517822E0,9.850622095E0
1.171004321E1,-1.407073975E-1,2.230361938E-2,9.847122803E0,9.848153305E0
1.171996621E1,-1.399589539E-1,1.437011719E-2,9.852361908E0,9.853366439E0
1.172989021E1,-1.389111328E-1,1.736389160E-2,9.841883698E0,9.842879280E0
1.173981321E1,-1.583706665E-1,2.230361938E-2,9.836794281E0,9.838094350E0
1.174973621E1,-1.570234680E-1,2.829116821E-2,9.839638367E0,9.840931864E0
1.175965921E1,-1.673519897E-1,3.068618774E-2,9.848919067E0,9.850388577E0
1.176958221E1,-1.794767761E-1,3.667373657E-2,9.846524048E0,9.848227896E0
1.177950521E1,-1.880090332E-1,4.879852295E-2,9.821975098E0,9.823895536E0
1.178942821E1,-2.002835083E-1,4.894821167E-2,9.810149689E0,9.812316053E0
1.179934746E1,-2.103126526E-1,4.535568237E-2,9.823172607E0,9.825528415E0
1.180927146E1,-2.092648315E-1,5.119354248E-2,9.818532257E0,9.820895490E0
1.181919446E1,-2.089654541E-1,5.284011841E-2,9.786199493E0,9.788572887E0
1.182911746E1,-2.115101624E-1,5.358856201E-2,9.766739960E0,9.769176921E0
1.183904046E1,-2.203417969E-1,6.765930176E-2,9.781708832E0,9.784424151E0
1.184896346E1,-2.323168945E-1,5.673202515E-2,9.773326263E0,9.776251629E0
1.185888646E1,-2.335144043E-1,6.242019653E-2,9.739197235E0,9.742196264E0
1.186880946E1,-2.444416809E-1,6.556365967E-2,9.730365601E0,9.733656304E0
1.187873246E1,-2.408491516E-1,6.780899048E-2,9.737400970E0,9.740615177E0
1.188865646E1,-2.314187622E-1,6.586303711E-2,9.741891632E0,9.744862501E0
1.189857946E1,-2.371069336E-1,5.792953491E-2,9.738598480E0,9.741656732E0
1.190850246E1,-2.270777893E-1,5.972579956E-2,9.719138947E0,9.721974766E0
1.191842546E1,-2.438429260E-1,6.556365967E-2,9.735305328E0,9.738579352E0
1.192834846E1,-2.353106689E-1,6.541397095E-2,9.757608948E0,9.760665063E0
1.193827146E1,-2.412982178E-1,5.673202515E-2,9.763895874E0,9.767041824E0
1.194819446E1,-2.462379456E-1,5.957611084E-2,9.757908325E0,9.761196511E0
1.195811746E1,-2.523751831E-1,5.643264771E-2,9.767189026E0,9.770612025E0
1.196804146E1,-2.505789185E-1,4.490661621E-2,9.787397003E0,9.790707150E0
1.197796446E1,-2.514770508E-1,3.832031250E-2,9.795031128E0,9.798333733E0
1.198788746E1,-2.363584900E-1,3.936813354E-2,9.787846069E0,9.790778614E0
1.199781046E1,-2.338137817E-1,2.365081787E-2,9.791887665E0,9.794707361E0
1.200773346E1,-2.442919922E-1,2.799179077E-2,9.803264008E0,9.806347298E0
1.201765646E1,-2.398013306E-1,1.766326904E-2,9.809101868E0,9.812048518E0
1.202757946E1,-2.390528870E-1,1.392105103E-2,9.790241089E0,9.793169081E0
1.203750346E1,-2.402503967E-1,2.020797729E-2,9.796977081E0,9.799943293E0
1.204742646E1,-2.395019531E-1,1.796264648E-2,9.796228638E0,9.799172382E0
1.205734946E1,-2.505789185E-1,1.841171265E-2,9.802216187E0,9.805435786E0
1.206727246E1,-2.420466614E-1,1.886077881E-2,9.808652802E0,9.811656950E0
1.207719546E1,-2.510279846E-1,1.960922241E-2,9.802515564E0,9.805748873E0
1.208711846E1,-2.459385681E-1,2.245330811E-2,9.808353424E0,9.811462012E0
1.209704146E1,-2.550695801E-1,1.945953369E-2,9.812095642E0,9.815429693E0
1.210696446E1,-2.519261169E-1,2.649490356E-2,9.820627899E0,9.823894395E0
1.211688846E1,-2.544708252E-1,2.215393066E-2,9.824519806E0,9.827839824E0
1.212681146E1,-2.508782959E-1,3.367996216E-2,9.839039612E0,9.842295197E0
1.213673446E1,-2.519261169E-1,3.233276367E-2,9.845775604E0,9.849051194E0
1.214665746E1,-2.577639771E-1,3.128494263E-2,9.845476227E0,9.848899591E0
1.215658046E1,-2.603086853E-1,3.832031250E-2,9.838889923E0,9.842407428E0
1.216650346E1,-2.558180237E-1,4.400848389E-2,9.846074982E0,9.849496035E0
1.217642646E1,-2.538720703E-1,4.700225830E-2,9.843679962E0,9.847065321E0
1.218634946E1,-2.592608643E-1,4.760101318E-2,9.842332764E0,9.845861886E0
1.219627346E1,-2.625540161E-1,5.852828979E-2,9.852212219E0,9.855883816E0
1.220619646E1,-2.546205139E-1,5.239105225E-2,9.850715332E0,9.854144762E0
1.221611946E1,-2.743794250E-1,5.224136353E-2,9.852212219E0,9.856170597E0
1.222604246E1,-2.736309814E-1,5.807922363E-2,9.865833893E0,9.869798656E0
1.223596546E1,-2.721340942E-1,5.403762817E-2,9.863588562E0,9.867489871E0
1.224588846E1,-2.821632385E-1,4.849914551E-2,9.867480469E0,9.871633049E0
1.225581146E1,-3.008743286E-1,6.301895142E-2,9.873917084E0,9.878701095E0
1.226573446E1,-2.996768188E-1,5.239105225E-2,9.884994049E0,9.889674331E0
1.227565846E1,-3.092568970E-1,4.954696655E-2,9.895322571E0,9.900277951E0
1.228558146E1,-3.138972473E-1,4.610412598E-2,9.902058563E0,9.907139893E0
1.229550446E1,-3.115022278E-1,5.074447632E-2,9.919572144E0,9.924591687E0
1.230542746E1,-3.216810608E-1,2.888992310E-2,9.937385101E0,9.942632246E0
1.231535046E1,-3.285667419E-1,2.978805542E-2,9.939480743E0,9.944954544E0
1.232527346E1,-3.335064697E-1,3.487747192E-2,9.947264557E0,9.952914908E0
1.233519646E1,-3.293151855E-1,2.215393066E-2,9.967771912E0,9.973234990E0
1.234511946E1,-3.327580261E-1,2.424957275E-2,9.979447632E0,9.985023334E0
1.235504346E1,-3.365002441E-1,2.185455322E-2,9.977651367E0,9.983347978E0
1.236496646E1,-3.369493103E-1,1.960922241E-2,9.986483002E0,9.992185051E0
1.237488946E1,-3.284170532E-1,7.634124756E-3,1.000070343E1,1.000609740E1
1.238481246E1,-3.206332397E-1,3.592529297E-3,1.000908600E1,1.001422094E1
1.239473546E1,-3.266207886E-1,1.092727661E-2,1.002210892E1,1.002743575E1
1.240465846E1,-3.240760803E-1,-1.197509766E-3,1.002240829E1,1.002764652E1
1.241458146E1,-3.170407104E-1,-3.592529297E-3,1.003109024E1,1.003609980E1
1.242450546E1,-3.264710999E-1,-2.245330811E-3,1.003767654E1,1.004298456E1
1.243442846E1,-3.305126953E-1,-7.783813477E-3,1.004067032E1,1.004611167E1
1.244435146E1,-3.282673645E-1,-5.239105225E-3,1.003662872E1,1.004199696E1
1.245427446E1,-3.264710999E-1,-1.032852173E-2,1.005294479E1,1.005824980E1
1.246419746E1,-3.213816833E-1,1.796264648E-3,1.005204666E1,1.005718308E1
1.247412046E1,-3.038681030E-1,3.592529297E-3,1.006072861E1,1.006531713E1
1.248404346E1,-3.010240173E-1,6.137237549E-3,1.006656647E1,1.007106814E1
1.249396646E1,-2.974314880E-1,1.227447510E-2,1.005084915E1,1.005525658E1
1.250389046E1,-2.983296204E-1,1.781295776E-2,1.004875351E1,1.005319675E1
1.251381346E1,-2.975811768E-1,1.841171265E-2,1.005099884E1,1.005541999E1
1.252373646E1,-2.963836670E-1,3.308120728E-2,1.004546036E1,1.004988614E1
1.253365946E1,-3.022215271E-1,3.023712158E-2,1.004126907E1,1.004586167E1
1.254358246E1,-2.917433167E-1,3.712280273E-2,1.003588028E1,1.004018851E1
1.255350546E1,-2.883004761E-1,4.550537109E-2,1.004351440E1,1.004775445E1
1.256342846E1,-2.856060791E-1,4.520599365E-2,1.004381378E1,1.004797540E1
1.257335146E1,-2.962339783E-1,5.343887329E-2,1.003647903E1,1.004099207E1
1.258327546E1,-2.884501648E-1,5.269042969E-2,1.002405487E1,1.002834263E1
1.259319846E1,-2.845582581E-1,4.790039063E-2,1.002570145E1,1.002985331E1
1.260312146E1,-2.784210205E-1,5.403762817E-2,1.004366409E1,1.004766773E1
1.261304446E1,-2.938389587E-1,6.316864014E-2,1.004561005E1,1.005010511E1
1.262296746E1,-2.793191528E-1,5.119354248E-2,1.002839584E1,1.003241562E1
1.263289046E1,-2.817141724E-1,5.388793945E-2,1.001252884E1,1.001663619E1
1.264281346E1,-3.005749512E-1,4.490661621E-2,1.002031265E1,1.002492033E1
1.265273746E1,-2.853067017E-1,5.239105225E-2,1.003064117E1,1.003483468E1
1.266266046E1,-2.787203979E-1,4.535568237E-2,1.003363495E1,1.003760791E1
1.267258346E1,-2.739303589E-1,4.490661621E-2,1.003902374E1,1.004286076E1
1.268250646E1,-2.740800476E-1,4.281097412E-2,1.006132736E1,1.006515082E1
1.269242946E1,-2.839595032E-1,2.844085693E-2,1.007045837E1,1.007450117E1
1.270235246E1,-2.894979858E-1,2.604583740E-2,1.008123596E1,1.008542542E1
1.271227546E1,-3.014730835E-1,2.260299683E-2,1.005983047E1,1.006437212E1
1.272219846E1,-2.891986084E-1,2.305206299E-2,1.007270370E1,1.007688082E1
1.273212246E1,-2.965333557E-1,2.469863892E-2,1.007943970E1,1.008383095E1
1.274204546E1,-2.899470520E-1,1.122665405E-2,1.010084518E1,1.010501206E1
1.275196846E1,-3.025209045E-1,4.191284180E-3,1.009590546E1,1.010043779E1
1.276189146E1,-2.957849121E-1,5.388793945E-3,1.008153534E1,1.008587490E1
1.277181446E1,-3.061134338E-1,4.490661621E-3,1.008782227E1,1.009246668E1
1.278173746E1,-3.055146790E-1,-3.442840576E-3,1.010473709E1,1.010935521E1
1.279166046E1,-3.107537842E-1,-1.002914429E-2,1.008108627E1,1.008587968E1
1.280158396E1,-3.173400879E-1,-6.735992432E-3,1.005908203E1,1.006408870E1
1.281150796E1,-3.079096985E-1,5.388793945E-3,1.005833359E1,1.006304685E1
1.282143096E1,-3.101550293E-1,7.334747314E-3,1.006671616E1,1.007149562E1
1.283135396E1,-3.023712158E-1,1.302291870E-2,1.006626709E1,1.007081581E1
1.284127696E1,-2.921923828E-1,1.781295776E-2,1.003812561E1,1.004239311E1
1.285119996E1,-2.845582581E-1,1.122665405E-2,1.004516098E1,1.004919691E1
1.286112296E1,-2.826123047E-1,1.496887207E-2,1.003588028E1,1.003986986E1
1.287104596E1,-2.799179077E-1,1.212478638E-2,1.005908203E1,1.006298327E1
1.288096996E1,-2.709365845E-1,4.191284180E-3,1.003917343E1,1.004282965E1
1.289089296E1,-2.724334717E-1,8.083190918E-3,1.002270767E1,1.002641284E1
1.290081596E1,-2.841091919E-1,9.280700684E-3,1.001222946E1,1.001626392E1
1.291073896E1,-2.649490356E-1,1.092727661E-2,1.002255798E1,1.002606533E1
1.292066196E1,-2.543211365E-1,1.871109009E-2,1.000504440E1,1.000829370E1
1.293058496E1,-2.480342102E-1,3.532653809E-2,9.984087982E0,9.987230936E0
1.294050796E1,-2.517764282E-1,4.161346436E-2,9.969568176E0,9.972833733E0
1.295043096E1,-2.377056885E-1,3.502716064E-2,9.949060822E0,9.951961723E0
1.296035496E1,-2.306703186E-1,4.700225830E-2,9.924362183E0,9.927153809E0
1.297027796E1,-2.329156494E-1,3.891906738E-2,9.915680237E0,9.918491768E0
1.298020096E1,-2.174977112E-1,3.906875610E-2,9.924511871E0,9.926971719E0
1.299012396E1,-2.043251038E-1,4.056564331E-2,9.924960938E0,9.927146817E0
1.300004696E1,-1.942959595E-1,4.326004028E-2,9.908046112E0,9.910045414E0
1.300996996E1,-1.974394226E-1,4.131408691E-2,9.889335022E0,9.891392033E0
1.301989296E1,-1.954934692E-1,3.996688843E-2,9.890682220E0,9.892694771E0
1.302981696E1,-1.975891113E-1,4.445755005E-2,9.919422455E0,9.921489796E0
1.303973996E1,-2.002835083E-1,2.694396973E-2,9.927954712E0,9.930011290E0
1.304966296E1,-1.860630798E-1,3.308120728E-2,9.925709381E0,9.927508275E0
1.305958596E1,-1.836680603E-1,1.796264648E-2,9.928403778E0,9.930118740E0
1.306950896E1,-1.927990723E-1,2.709365845E-2,9.924960938E0,9.926870361E0
1.307943196E1,-2.019300842E-1,2.634521484E-2,9.925559692E0,9.927648515E0
1.308935496E1,-2.014810181E-1,2.409988403E-2,9.905501404E0,9.907579597E0
1.309927796E1,-1.926493835E-1,1.811233521E-2,9.885892181E0,9.887785701E0
1.310920196E1,-1.811233521E-1,9.580078125E-3,9.883946228E0,9.885610274E0
1.311912496E1,-1.716929626E-1,2.993774414E-3,9.914632416E0,9.916119371E0
1.312904796E1,-1.767823792E-1,5.239105225E-3,9.901908875E0,9.903488215E0
1.313897096E1,-1.645079041E-1,-8.232879639E-3,9.891730042E0,9.893101326E0
1.314889396E1,-1.781295776E-1,-2.993774414E-4,9.886940002E0,9.888544526E0
1.315881696E1,-1.850152588E-1,4.041595459E-3,9.907447357E0,9.909175552E0
1.316873996E1,-1.805245972E-1,2.395019531E-3,9.900112610E0,9.901758660E0
1.317866296E1,-1.740879822E-1,3.442840576E-3,9.877958679E0,9.879493213E0
1.318858696E1,-1.689985657E-1,-3.592529297E-3,9.869426422E0,9.870873889E0
1.319850996E1,-1.722917175E-1,-1.796264648E-3,9.889933777E0,9.891434566E0
1.320843296E1,-1.773811340E-1,1.167572021E-2,9.884395294E0,9.885993664E0
1.321835596E1,-1.821711731E-1,7.484436035E-3,9.862840118E0,9.864525207E0
1.322827896E1,-1.688488770E-1,5.388793945E-3,9.842482452E0,9.843932131E0
1.323820196E1,-1.871109009E-1,1.422042847E-2,9.850266266E0,9.852053503E0
1.324812496E1,-1.818717957E-1,2.185455322E-2,9.849068756E0,9.850772068E0
1.325804896E1,-1.895059204E-1,2.544708252E-2,9.831255798E0,9.833115001E0
1.326797196E1,-1.862127686E-1,3.502716064E-2,9.806706848E0,9.808537164E0
1.327789496E1,-1.829196167E-1,4.086502075E-2,9.801467743E0,9.803259634E0
1.328781796E1,-1.800755310E-1,4.296066284E-2,9.811646576E0,9.813392958E0
1.329774096E1,-1.728904724E-1,4.311035156E-2,9.796378326E0,9.797998670E0
1.330766396E1,-1.769320679E-1,4.191284180E-2,9.780211945E0,9.781902030E0
1.331758696E1,-1.760339355E-1,4.176315308E-2,9.767189026E0,9.768864498E0
1.332750996E1,-1.734892273E-1,4.655319214E-2,9.788295135E0,9.789943175E0
1.333743396E1,-1.567240906E-1,4.670288086E-2,9.782157898E0,9.783524761E0
1.334735696E1,-1.550775146E-1,4.400848389E-2,9.773326263E0,9.774655597E0
1.335727996E1,-1.420545959E-1,4.400848389E-2,9.772428131E0,9.773559630E0
1.336720296E1,-1.535806274E-1,4.505630493E-2,9.783954163E0,9.785263212E0
1.337712596E1,-1.339714050E-1,4.670288086E-2,9.801467743E0,9.802494550E0
1.338704896E1,-1.270857239E-1,4.670288086E-2,9.768835602E0,9.769773844E0
1.339697196E1,-1.351689148E-1,4.685256958E-2,9.774074707E0,9.775121594E0
1.340689496E1,-1.258882141E-1,4.266128540E-2,9.791288910E0,9.792191090E0
1.341681896E1,-1.202000427E-1,4.101470947E-2,9.809700623E0,9.810522747E0
1.342674196E1,-1.085243225E-1,3.382965088E-2,9.793983307E0,9.794642974E0
1.343666496E1,-1.119671631E-1,2.814147949E-2,9.808054047E0,9.808733495E0
1.344658796E1,-1.092727661E-1,2.694396973E-2,9.828561401E0,9.829205753E0
1.345651096E1,-1.032852173E-1,2.365081787E-2,9.838889923E0,9.839460459E0
1.346643396E1,-9.505233765E-2,1.960922241E-2,9.839039612E0,9.839518278E0
1.347635696E1,-8.876541138E-2,1.975891113E-2,9.847422180E0,9.847842063E0
1.348628096E1,-9.430389404E-2,8.681945801E-3,9.852511597E0,9.852966729E0
1.349620396E1,-8.592132568E-2,6.286926270E-3,9.874515839E0,9.874891647E0
1.350612696E1,-8.816665649E-2,1.332229614E-2,9.864486694E0,9.864889689E0
1.351604996E1,-8.996292114E-2,8.981323242E-3,9.856253815E0,9.856668466E0
1.352597296E1,-9.145980835E-2,-2.993774414E-4,9.875563660E0,9.875987170E0
1.353589596E1,-8.936416626E-2,5.987548828E-4,9.889484711E0,9.889888480E0
1.354581896E1,-8.532257080E-2,1.197509766E-3,9.898765411E0,9.899133197E0
1.355574196E1,-9.355545044E-2,4.041595459E-3,9.875563660E0,9.876007622E0
1.356566596E1,-9.430389404E-2,4.490661621E-4,9.887089691E0,9.887539430E0
1.357558896E1,-8.427474976E-2,-3.442840576E-3,9.903405762E0,9.903764929E0
1.358551196E1,-8.996292114E-2,-5.987548828E-4,9.907746735E0,9.908155179E0
1.359543496E1,-8.831634521E-2,1.137634277E-2,9.898016968E0,9.898417504E0
1.360535796E1,-9.250762939E-2,9.131011963E-3,9.900861053E0,9.901297422E0
1.361528096E1,-9.729766846E-2,1.616638184E-2,9.914931793E0,9.915422364E0
1.362520396E1,-9.954299927E-2,1.691482544E-2,9.910141754E0,9.910656109E0
1.363512696E1,-9.535171509E-2,2.185455322E-2,9.902657318E0,9.903140488E0
1.364505096E1,-9.310638428E-2,3.068618774E-2,9.906998291E0,9.907483312E0
1.365497396E1,-9.310638428E-2,2.290237427E-2,9.901908875E0,9.902373083E0
1.366489696E1,-1.028361511E-1,3.173400879E-2,9.902208252E0,9.902793070E0
1.367481996E1,-1.127156067E-1,3.667373657E-2,9.903705139E0,9.904414433E0
1.368474296E1,-1.098715210E-1,4.340972900E-2,9.897867279E0,9.898572262E0
1.369466596E1,-1.104702759E-1,4.400848389E-2,9.906698914E0,9.907412568E0
1.370458896E1,-1.124162292E-1,4.565505981E-2,9.921218719E0,9.921960626E0
1.371451296E1,-1.182540894E-1,5.029541016E-2,9.907447357E0,9.908280718E0
1.372443596E1,-1.161584473E-1,5.119354248E-2,9.919572144E0,9.920384321E0
1.373435896E1,-1.164578247E-1,4.655319214E-2,9.925410004E0,9.926202364E0
1.374428196E1,-1.202000427E-1,5.284011841E-2,9.949659576E0,9.950525906E0
1.375420496E1,-1.345701599E-1,4.610412598E-2,9.955497437E0,9.956513643E0
1.376412796E1,-1.294807434E-1,4.071533203E-2,9.956096191E0,9.957021361E0
1.377405096E1,-1.221459961E-1,4.056564331E-2,9.962981873E0,9.963813176E0
1.378397396E1,-1.234931946E-1,3.727249146E-2,9.995314636E0,9.996146982E0
1.379389737E1,-1.264869690E-1,2.784210205E-2,9.995015259E0,9.995854349E0
1.380382037E1,-1.306782532E-1,3.083587646E-2,9.992320862E0,9.993222897E0
1.381374337E1,-1.213975525E-1,3.876937866E-2,9.994266815E0,9.995079270E0
1.382366637E1,-1.233435059E-1,2.829116821E-2,1.001761826E1,1.001841752E1
1.383358937E1,-1.209484863E-1,2.424957275E-2,1.002180954E1,1.002256868E1
1.384351237E1,-1.161584473E-1,2.814147949E-2,1.001731888E1,1.001803185E1
1.385343538E1,-1.032852173E-1,2.395019531E-2,1.001058289E1,1.001114435E1
1.386335837E1,-1.053808594E-1,2.215393066E-2,1.003483246E1,1.003541023E1
1.387328237E1,-1.050814819E-1,1.676513672E-2,1.004516098E1,1.004572458E1
1.388320537E1,-1.046324158E-1,2.035766602E-2,1.003797592E1,1.003854188E1
1.389312837E1,-9.595046997E-2,2.290237427E-2,1.004740631E1,1.004789055E1
1.390305137E1,-9.400451660E-2,3.083587646E-2,1.005040009E1,1.005088700E1
1.391297437E1,-1.008901978E-1,3.053649902E-2,1.006042923E1,1.006098144E1
1.392289737E1,-9.804611206E-2,3.308120728E-2,1.005249573E1,1.005302829E1
1.393282037E1,-9.011260986E-2,3.083587646E-2,1.004096970E1,1.004142139E1
1.394274437E1,-8.547225952E-2,3.293151855E-2,1.005234604E1,1.005276335E1
1.395266738E1,-8.158035278E-2,3.427871704E-2,1.006581802E1,1.006620698E1
1.396259037E1,-7.723937988E-2,3.487747192E-2,1.006716522E1,1.006752194E1
1.397251337E1,-8.696914673E-2,3.832031250E-2,1.006222549E1,1.006267430E1
1.398243637E1,-8.816665649E-2,3.712280273E-2,1.004995102E1,1.005040631E1
1.399235937E1,-8.592132568E-2,3.772155762E-2,1.004396347E1,1.004440180E1
1.400228237E1,-9.475296021E-2,4.445755005E-2,1.006911118E1,1.006965513E1
1.401220537E1,-1.116677856E-1,4.909790039E-2,1.006611740E1,1.006685650E1
1.402212938E1,-1.107696533E-1,4.296066284E-2,1.005548950E1,1.005619136E1
1.403205237E1,-1.125659180E-1,4.670288086E-2,1.004336472E1,1.004410409E1
1.404197537E1,-1.204994202E-1,4.969665527E-2,1.003932312E1,1.004016925E1
1.405189838E1,-1.263372803E-1,3.427871704E-2,1.003662872E1,1.003748237E1
1.406182137E1,-1.303788757E-1,4.370910645E-2,1.004441254E1,1.004535377E1
1.407174437E1,-1.272354126E-1,5.598358154E-2,1.003842499E1,1.003938739E1
1.408166737E1,-1.345701599E-1,5.149291992E-2,1.004845413E1,1.004948711E1
1.409159037E1,-1.495390320E-1,4.625381470E-2,1.005144791E1,1.005266663E1
1.410151437E1,-1.419049072E-1,4.879852295E-2,1.003109024E1,1.003221260E1
1.411143737E1,-1.380130005E-1,4.700225830E-2,1.002420456E1,1.002526478E1
1.412136038E1,-1.252894592E-1,4.864883423E-2,1.003153931E1,1.003243963E1
1.413128337E1,-1.603166199E-1,4.834945679E-2,1.004935226E1,1.005074724E1
1.414120637E1,-1.451980591E-1,4.775070190E-2,1.006297394E1,1.006413469E1
1.415112938E1,-1.486408997E-1,3.951782227E-2,1.007674530E1,1.007791901E1
1.416105237E1,-1.505868530E-1,3.487747192E-2,1.006177643E1,1.006296367E1
1.417097537E1,-1.689985657E-1,2.439926147E-2,1.008961853E1,1.009106327E1
1.418089937E1,-1.678010559E-1,2.110610962E-2,1.004471191E1,1.004613558E1
1.419082237E1,-1.847158813E-1,2.215393066E-2,1.008123596E1,1.008295241E1
1.420074537E1,-2.001338196E-1,1.826202393E-2,1.007420059E1,1.007620487E1
1.421066837E1,-1.561253357E-1,1.466949463E-2,1.007165588E1,1.007287658E1
1.422059138E1,-2.013313293E-1,3.742218018E-3,1.007749374E1,1.007950537E1
1.423051437E1,-1.842668152E-1,6.436614990E-3,1.007794281E1,1.007962931E1
1.424043737E1,-2.034269714E-1,1.945953369E-3,1.006716522E1,1.006922052E1
1.425036137E1,-1.872605896E-1,2.395019531E-3,1.004067032E1,1.004241668E1
1.426028437E1,-2.242337036E-1,1.302291870E-2,1.005953110E1,1.006203837E1
1.427020737E1,-2.128573608E-1,1.601669312E-2,1.004770569E1,1.004997286E1
1.428013037E1,-2.008822632E-1,1.796264648E-2,1.004546036E1,1.004748477E1
1.429005337E1,-2.100132751E-1,9.580078125E-3,1.003992188E1,1.004212271E1
1.429997637E1,-1.944456482E-1,1.407073975E-2,1.004141876E1,1.004331110E1
1.430989937E1,-2.064207458E-1,1.496887207E-2,1.003797592E1,1.004010927E1
1.431982238E1,-1.808239746E-1,2.769241333E-2,1.002959335E1,1.003126149E1
1.432974637E1,-2.061213684E-1,3.637435913E-2,9.989177399E0,9.991369987E0
1.433966937E1,-1.853146362E-1,5.014572144E-2,9.983339539E0,9.985185249E0
1.434959237E1,-1.899549866E-1,4.775070190E-2,9.977202301E0,9.979124650E0
1.435951537E1,-1.800755310E-1,5.763015747E-2,9.964029694E0,9.965823406E0
1.436943837E1,-1.823208618E-1,6.765930176E-2,9.945917358E0,9.947818393E0
1.437936137E1,-1.764830017E-1,5.718109131E-2,9.926308136E0,9.928041556E0
1.438928437E1,-1.907034302E-1,6.227050781E-2,9.931696930E0,9.933722833E0
1.439920737E1,-2.142045593E-1,6.316864014E-2,9.953850861E0,9.956355800E0
1.440913137E1,-1.821711731E-1,6.391708374E-2,9.920769653E0,9.922647945E0
1.441905438E1,-1.877096558E-1,5.822891235E-2,9.901010742E0,9.902961135E0
1.442897737E1,-1.725910950E-1,5.912704468E-2,9.889634399E0,9.891317013E0
1.443890037E1,-1.884580994E-1,6.451583862E-2,9.893825684E0,9.895830708E0
1.444882337E1,-1.892065430E-1,4.805007935E-2,9.902357941E0,9.904281938E0
1.445874637E1,-2.049238586E-1,6.032455444E-2,9.878258057E0,9.880567548E0
1.446866937E1,-1.998344421E-1,6.122268677E-2,9.868977356E0,9.871190206E0
1.447859237E1,-2.041754150E-1,5.029541016E-2,9.875563660E0,9.877802125E0
1.448851638E1,-2.170486450E-1,5.239105225E-2,9.882299652E0,9.884821766E0
1.449843937E1,-2.194436646E-1,5.433700562E-2,9.858798523E0,9.861390183E0
1.450836237E1,-2.189945984E-1,5.209167480E-2,9.850715332E0,9.853287001E0
1.451828537E1,-2.209405518E-1,4.430786133E-2,9.873767395E0,9.876338415E0
1.452820837E1,-2.318678284E-1,5.343887329E-2,9.873917084E0,9.876783737E0
1.453813137E1,-2.399510193E-1,5.478607178E-2,9.860894165E0,9.863965315E0
1.454805437E1,-2.344125366E-1,3.637435913E-2,9.825867004E0,9.828730066E0
1.455797837E1,-2.371069336E-1,3.188369751E-2,9.849817200E0,9.852722220E0
1.456790137E1,-2.351609802E-1,3.502716064E-2,9.845027161E0,9.847897612E0
1.457782437E1,-2.487826538E-1,3.188369751E-2,9.849667511E0,9.852860471E0
1.458774738E1,-2.567161560E-1,4.475692749E-2,9.837093658E0,9.840544599E0
1.459767037E1,-2.395019531E-1,3.173400879E-2,9.826316071E0,9.829285618E0
1.460759337E1,-2.484832764E-1,2.918930054E-2,9.833950195E0,9.837132326E0
1.461751637E1,-2.414479065E-1,2.514770508E-2,9.838141479E0,9.841135975E0
1.462743937E1,-2.564167786E-1,2.514770508E-2,9.827812958E0,9.831189628E0
1.463736337E1,-2.562670898E-1,2.529739380E-2,9.819280701E0,9.822656782E0
1.464728637E1,-2.680924988E-1,2.544708252E-2,9.832602997E0,9.836290095E0
1.465720938E1,-2.698887634E-1,2.409988403E-2,9.830357666E0,9.834091345E0
1.466713237E1,-2.719844055E-1,2.589614868E-2,9.811945953E0,9.815749055E0
1.467705537E1,-2.884501648E-1,2.619552612E-2,9.812844086E0,9.817117640E0
1.468697838E1,-2.877017212E-1,2.709365845E-2,9.815987549E0,9.820240216E0
1.469690137E1,-2.944377136E-1,3.667373657E-2,9.826765137E0,9.831243644E0
1.470682437E1,-2.914439392E-1,3.607498169E-2,9.812844086E0,9.817237393E0
1.471674837E1,-2.923420715E-1,3.008743286E-2,9.792935486E0,9.797344261E0
1.472667137E1,-3.070115662E-1,3.891906738E-2,9.791139221E0,9.796028687E0
1.473659437E1,-3.104544067E-1,4.730163574E-2,9.818831635E0,9.823852302E0
1.474651737E1,-3.053649902E-1,4.086502075E-2,9.803264008E0,9.808103942E0
1.475644038E1,-2.865042114E-1,5.059478760E-2,9.766590271E0,9.770922680E0
1.476636337E1,-2.787203979E-1,6.780899048E-2,9.750573578E0,9.754792064E0
1.477628637E1,-2.800675964E-1,6.376739502E-2,9.767937469E0,9.772159769E0
1.478620938E1,-2.827619934E-1,6.062393188E-2,9.764943695E0,9.769224891E0
1.479613346E1,-2.805166626E-1,5.748046875E-2,9.759704590E0,9.763904305E0
1.480605646E1,-2.689906311E-1,5.718109131E-2,9.743388519E0,9.747268616E0
1.481597946E1,-2.776725769E-1,6.601272583E-2,9.772428131E0,9.776595078E0
1.482590246E1,-2.764750671E-1,6.496490479E-2,9.772877197E0,9.777002998E0
1.483582546E1,-2.695893860E-1,5.583389282E-2,9.779762878E0,9.783637249E0
1.484574846E1,-2.667453003E-1,5.628295898E-2,9.760003967E0,9.763810643E0
1.485567146E1,-2.613565063E-1,4.535568237E-2,9.782307587E0,9.785903437E0
1.486559446E1,-2.751278687E-1,4.116439819E-2,9.796228638E0,9.800177824E0
1.487551846E1,-2.722837830E-1,3.068618774E-2,9.803563385E0,9.807391862E0
1.488544146E1,-2.746788025E-1,3.442840576E-2,9.797875214E0,9.801785167E0
1.489536446E1,-2.757266235E-1,3.517684937E-2,9.807455292E0,9.811393473E0
1.490528746E1,-2.761756897E-1,3.068618774E-2,9.833950195E0,9.837875335E0
1.491521046E1,-2.640509033E-1,2.829116821E-2,9.824819183E0,9.828407565E0
1.492513346E1,-2.640509033E-1,2.095642090E-2,9.822723541E0,9.826294308E0
1.493505646E1,-2.662962341E-1,2.814147949E-2,9.810898132E0,9.814551838E0
1.494498046E1,-2.734812927E-1,2.559677124E-2,9.822124786E0,9.825964713E0
1.495490346E1,-2.749781799E-1,1.541793823E-2,9.832004242E0,9.835860823E0
1.496482646E1,-2.779719543E-1,2.350112915E-2,9.821376343E0,9.825337347E0
1.497474946E1,-2.806663513E-1,2.110610962E-2,9.818083191E0,9.822116707E0
1.498467246E1,-2.908451843E-1,1.930984497E-2,9.827962646E0,9.832284250E0
1.499459546E1,-2.909948730E-1,2.170486450E-2,9.838440857E0,9.842767274E0
1.500451846E1,-2.814147949E-1,2.065704346E-2,9.829758911E0,9.833808075E0
1.501444146E1,-2.941383362E-1,2.649490356E-2,9.832602997E0,9.837037208E0
1.502436546E1,-3.017724609E-1,2.844085693E-2,9.841284943E0,9.845951697E0
1.503428846E1,-2.953358459E-1,3.517684937E-2,9.858199768E0,9.862685402E0
1.504421146E1,-2.954855347E-1,3.847000122E-2,9.857900391E0,9.862402940E0
1.505413446E1,-2.977308655E-1,3.263214111E-2,9.851912842E0,9.856464638E0
1.506405746E1,-3.080593872E-1,3.742218018E-2,9.864636383E0,9.869516299E0
1.507398046E1,-3.094065857E-1,4.445755005E-2,9.871821442E0,9.876769081E0
1.508390346E1,-3.147953796E-1,4.430786133E-2,9.870025177E0,9.875143357E0
1.509382646E1,-3.073109436E-1,5.358856201E-2,9.868528290E0,9.873457467E0
1.510375046E1,-3.056643677E-1,5.254074097E-2,9.874964905E0,9.879834164E0
1.511367346E1,-2.897973633E-1,5.598358154E-2,9.874066772E0,9.878477175E0
1.512359646E1,-2.896476746E-1,5.957611084E-2,9.876312103E0,9.880738123E0
1.513351946E1,-3.118016052E-1,5.867797852E-2,9.866432648E0,9.871532634E0
1.514344246E1,-3.094065857E-1,5.703140259E-2,9.872719574E0,9.877731359E0
1.515336546E1,-3.112028503E-1,5.628295898E-2,9.877509613E0,9.882571079E0
1.516328846E1,-3.007246399E-1,7.170089722E-2,9.878856812E0,9.883693046E0
1.517321246E1,-3.070115662E-1,7.349716187E-2,9.886041870E0,9.891080921E0
1.518313546E1,-3.071612549E-1,7.214996338E-2,9.879006500E0,9.884043863E0
1.519305846E1,-3.010240173E-1,6.227050781E-2,9.901759186E0,9.906529566E0
1.520298146E1,-3.112028503E-1,6.646179199E-2,9.903854828E0,9.908965881E0
1.521290446E1,-3.022215271E-1,6.167175293E-2,9.907147980E0,9.911948464E0
1.522282746E1,-3.162922668E-1,5.658233643E-2,9.928104401E0,9.933302540E0
1.523275046E1,-3.064128113E-1,5.553451538E-2,9.940079498E0,9.944956175E0
1.524267346E1,-2.965333557E-1,5.209167480E-2,9.972262573E0,9.976806423E0
1.525259746E1,-2.865042114E-1,3.921844482E-2,9.982291718E0,9.986479394E0
1.526252046E1,-2.836601257E-1,3.861968994E-2,9.984387360E0,9.988490651E0
1.527244346E1,-2.818638611E-1,2.649490356E-2,1.000279907E1,1.000680461E1
1.528236646E1,-2.854563904E-1,2.574645996E-2,1.000773880E1,1.001184219E1
1.529228946E1,-2.827619934E-1,2.170486450E-2,1.002240829E1,1.002641977E1
1.530221246E1,-2.827619934E-1,2.350112915E-2,1.003109024E1,1.003510229E1
1.531213546E1,-2.701881409E-1,1.556762695E-2,1.002644989E1,1.003010176E1
1.532205846E1,-2.649490356E-1,8.382568359E-3,1.003692810E1,1.004042798E1
1.533198246E1,-2.574645996E-1,8.532257080E-3,1.005833359E1,1.006163184E1
1.534190546E1,-2.531236267E-1,2.993774414E-3,1.004845413E1,1.005164220E1
1.535182846E1,-2.498304749E-1,-3.442840576E-3,1.004276596E1,1.004587354E1
1.536175146E1,-2.468367004E-1,-5.987548828E-3,1.005533981E1,1.005837079E1
1.537167446E1,-2.435435486E-1,1.945953369E-3,1.005788452E1,1.006083288E1
1.538159746E1,-2.362088013E-1,5.239105225E-3,1.004965164E1,1.005242857E1
1.539152046E1,-2.390528870E-1,7.035369873E-3,1.006626709E1,1.006910765E1
1.540144346E1,-2.405497742E-1,1.496887207E-3,1.006566833E1,1.006854237E1
1.541136746E1,-2.433938599E-1,5.987548828E-3,1.007494904E1,1.007789038E1
1.542129046E1,-2.417472839E-1,1.062789917E-2,1.008033783E1,1.008324181E1
1.543121346E1,-2.266287231E-1,6.436614990E-3,1.007045837E1,1.007301017E1
1.544113646E1,-2.392025757E-1,2.544708252E-2,1.007539810E1,1.007826931E1
1.545105946E1,-2.525248718E-1,1.631607056E-2,1.007105713E1,1.007423579E1
1.546098246E1,-2.487826538E-1,2.439926147E-2,1.006192612E1,1.006503082E1
1.547090546E1,-2.490820312E-1,3.472778320E-2,1.006462051E1,1.006776211E1
1.548082946E1,-2.492317200E-1,2.933898926E-2,1.005668701E1,1.005981764E1
1.549075246E1,-2.406994629E-1,3.158432007E-2,1.006027954E1,1.006320815E1
1.550067546E1,-2.344125366E-1,3.981719971E-2,1.004710693E1,1.004992002E1
1.551059846E1,-2.468367004E-1,3.996688843E-2,1.003617966E1,1.003929419E1
1.552052146E1,-2.454895020E-1,4.340972900E-2,1.003004242E1,1.003314011E1
1.553044446E1,-2.389031982E-1,4.041595459E-2,1.003528152E1,1.003820619E1
1.554036746E1,-2.498304749E-1,3.757186890E-2,1.002016296E1,1.002334738E1
1.555029046E1,-2.411485291E-1,4.311035156E-2,1.002360580E1,1.002659885E1
1.556021446E1,-2.306703186E-1,4.909790039E-2,1.002749771E1,1.003027067E1
1.557013746E1,-2.351609802E-1,4.819976807E-2,1.003228775E1,1.003515926E1
1.558006046E1,-2.469863892E-1,4.221221924E-2,1.002061203E1,1.002374429E1
1.558998346E1,-2.291734314E-1,3.472778320E-2,1.002345612E1,1.002613580E1
1.559990646E1,-2.398013306E-1,3.906875610E-2,1.002091141E1,1.002385637E1
1.560982946E1,-2.380050659E-1,3.158432007E-2,1.004456223E1,1.004743123E1
1.561975246E1,-2.336640930E-1,3.472778320E-2,1.004620880E1,1.004898583E1
1.562967546E1,-2.330653381E-1,2.215393066E-2,1.004875351E1,1.005148036E1
1.563959946E1,-2.290237427E-1,2.484832764E-2,1.005264542E1,1.005528464E1
1.564952246E1,-2.317181396E-1,2.664459229E-2,1.003977219E1,1.004248121E1
1.565944546E1,-2.377056885E-1,2.110610962E-2,1.005728577E1,1.006011662E1
1.566936846E1,-2.209405518E-1,1.362167358E-2,1.006462051E1,1.006705450E1
1.567929146E1,-2.269281006E-1,1.466949463E-2,1.004875351E1,1.005132621E1
1.568921446E1,-2.266287231E-1,1.571731567E-2,1.003977219E1,1.004234202E1
1.569913746E1,-2.121089172E-1,1.796264648E-2,1.004291565E1,1.004517136E1
1.570906146E1,-2.171983337E-1,1.796264648E-2,1.004605911E1,1.004842283E1
1.571898446E1,-2.171983337E-1,1.496887207E-2,1.002974304E1,1.003210569E1
1.572890746E1,-2.037263489E-1,1.631607056E-2,1.003034180E1,1.003242379E1
1.573883046E1,-2.020797729E-1,1.526824951E-2,1.001941452E1,1.002146380E1
1.574875346E1,-1.892065430E-1,8.382568359E-3,1.001911514E1,1.002090503E1
1.575867646E1,-1.868115234E-1,3.293151855E-3,1.002151016E1,1.002325173E1
1.576859946E1,-1.896556091E-1,7.334747314E-3,1.002749771E1,1.002929376E1
1.577852246E1,-1.808239746E-1,3.442840576E-3,1.001028351E1,1.001191715E1
1.578844646E1,-1.628613281E-1,4.340972900E-3,1.000938538E1,1.001071118E1
1.579836937E1,-1.597178650E-1,4.790039062E-3,1.001866608E1,1.001994025E1
1.580829237E1,-1.582209778E-1,1.197509766E-2,1.000429596E1,1.000555420E1
1.581821537E1,-1.537303162E-1,1.392105103E-2,9.989327087E0,9.990519629E0
1.582813837E1,-1.454974365E-1,1.092727661E-2,9.978998566E0,9.980065194E0
1.583806137E1,-1.496887207E-1,2.484832764E-2,9.964179382E0,9.965334661E0
1.584798437E1,-1.495390320E-1,2.080673218E-2,9.941277008E0,9.942423417E0
1.585790838E1,-1.498384094E-1,2.170486450E-2,9.929900665E0,9.931054822E0
1.586783137E1,-1.499880981E-1,3.637435913E-2,9.926757202E0,9.927956893E0
1.587775437E1,-1.389111328E-1,3.487747192E-2,9.924062805E0,9.925096236E0
1.588767737E1,-1.420545959E-1,3.128494263E-2,9.907147980E0,9.908215750E0
1.589760037E1,-1.357676697E-1,3.891906738E-2,9.891280975E0,9.892289264E0
1.590752337E1,-1.357676697E-1,3.802093506E-2,9.889185333E0,9.890190342E0
1.591744637E1,-1.375639343E-1,3.427871704E-2,9.899214478E0,9.900229600E0
1.592736938E1,-1.338217163E-1,3.712280273E-2,9.906998291E0,9.907971613E0
1.593729337E1,-1.329235840E-1,3.757186890E-2,9.898765411E0,9.899729137E0
1.594721637E1,-1.420545959E-1,3.248245239E-2,9.889335022E0,9.890408576E0
1.595713937E1,-1.378633118E-1,2.409988403E-2,9.893526306E0,9.894516151E0
1.596706237E1,-1.440005493E-1,2.245330811E-2,9.888137512E0,9.889211484E0
1.597698537E1,-1.453477478E-1,1.856140137E-2,9.891280975E0,9.892366240E0
1.598690837E1,-1.401086426E-1,1.960922241E-2,9.887987823E0,9.888999856E0
1.599683137E1,-1.377136230E-1,1.362167358E-2,9.882898407E0,9.883867235E0
1.600675537E1,-1.437011719E-1,1.526824951E-2,9.890233154E0,9.891288844E0
1.601667837E1,-1.471440125E-1,1.392105103E-2,9.886940002E0,9.888044689E0
1.602660138E1,-1.505868530E-1,4.640350342E-3,9.873767395E0,9.874916734E0
1.603652437E1,-1.383123779E-1,4.041595459E-3,9.875114594E0,9.876083985E0
1.604644737E1,-1.499880981E-1,-1.047821045E-3,9.879305878E0,9.880444431E0
1.605637037E1,-1.425036621E-1,-7.484436035E-3,9.893825684E0,9.894854722E0
1.606629337E1,-1.356179810E-1,-7.035369873E-3,9.890682220E0,9.891614455E0
1.607621637E1,-1.336720276E-1,-2.095642090E-3,9.880503387E0,9.881407784E0
1.608614037E1,-1.314266968E-1,-9.729766846E-3,9.875264282E0,9.876143594E0
1.609606338E1,-1.338217163E-1,-7.634124756E-3,9.887389069E0,9.888297585E0
1.610598637E1,-1.345701599E-1,-4.939727783E-3,9.875713348E0,9.876631393E0
1.611590937E1,-1.279838562E-1,-1.197509766E-3,9.856553192E0,9.857384142E0
1.612583238E1,-1.291813660E-1,-4.041595459E-3,9.851613464E0,9.852461216E0
1.613575537E1,-1.234931946E-1,2.993774414E-4,9.852511597E0,9.853285514E0
1.614567837E1,-1.263372803E-1,2.694396973E-3,9.850266266E0,9.851076788E0
1.615560137E1,-1.299298096E-1,7.035369873E-3,9.843230896E0,9.844090904E0
1.616552537E1,-1.404080200E-1,1.002914429E-2,9.836794281E0,9.837801417E0
1.617544837E1,-1.324745178E-1,1.212478638E-2,9.844727783E0,9.845626523E0
1.618537137E1,-1.278341675E-1,1.392105103E-2,9.838440857E0,9.839281166E0
1.619529438E1,-1.169068909E-1,1.796264648E-2,9.825268250E0,9.825980157E0
1.620521737E1,-1.218466187E-1,1.781295776E-2,9.819430389E0,9.820202497E0
1.621514037E1,-1.219963074E-1,2.200424194E-2,9.817933502E0,9.818716084E0
1.622506338E1,-1.082249451E-1,2.888992310E-2,9.820777588E0,9.821416379E0
1.623498737E1,-1.055305481E-1,2.724334717E-2,9.809850311E0,9.810455750E0
1.624491037E1,-9.924362183E-2,3.098556519E-2,9.787846069E0,9.788398239E0
1.625483337E1,-9.565109253E-2,3.323089600E-2,9.791438599E0,9.791962176E0
1.626475637E1,-1.037342834E-1,3.323089600E-2,9.798324280E0,9.798929727E0
1.627467937E1,-9.924362183E-2,3.682342529E-2,9.787397003E0,9.787969420E0
1.628460237E1,-9.370513916E-2,4.565505981E-2,9.777367859E0,9.777923465E0
1.629452538E1,-7.514373779E-2,4.206253052E-2,9.776918793E0,9.777298038E0
