"Time (s)","Gyroscope x (rad/s)","Gyroscope y (rad/s)","Gyroscope z (rad/s)","Absolute (rad/s)"
5.781500000E-2,1.008216757E-3,-1.522459090E-3,1.531963120E-3,2.383546457E-3
6.773800000E-2,5.863719853E-4,1.576661132E-3,1.352732419E-3,2.158605436E-3
7.766000000E-2,2.167490777E-3,1.882658340E-3,1.145804883E-3,3.091162811E-3
8.758300000E-2,1.459782943E-3,-2.095189877E-3,2.822352573E-3,3.806108368E-3
9.750500000E-2,7.070514839E-4,-8.077453822E-4,-2.527119359E-4,1.102831685E-3
1.074280000E-1,-1.737197861E-3,6.026634946E-4,9.755379288E-4,2.081522026E-3
1.173510000E-1,-1.047102502E-3,-1.149943098E-3,3.679509973E-4,1.598180439E-3
1.272730000E-1,1.825383166E-3,2.372981980E-4,3.744040150E-3,4.172070323E-3
1.371960000E-1,-7.394200657E-5,7.588881999E-5,2.305692993E-3,2.308126234E-3
1.471180000E-1,1.606825390E-4,3.917394206E-4,3.770431504E-3,3.794131307E-3
1.570410000E-1,-8.785971440E-4,-1.594722271E-3,8.209071821E-4,1.997238259E-3
1.669640000E-1,-1.550512738E-3,-1.592592336E-3,-1.482170774E-4,2.227646381E-3
1.768860000E-1,2.251612023E-5,1.867308281E-3,1.523288316E-3,2.409928316E-3
1.868090000E-1,8.376885671E-5,-1.212636940E-3,1.873494009E-3,2.233267869E-3
1.967310000E-1,2.690317342E-4,1.995249651E-3,2.637230325E-3,3.317888340E-3
2.066540000E-1,-1.169874100E-3,1.246369444E-3,-1.554412302E-5,1.709468871E-3
2.165770000E-1,-2.175217494E-3,-5.715042353E-4,-8.132425137E-5,2.250511469E-3
2.264990000E-1,-6.425683387E-4,-4.468681291E-4,2.691292670E-3,2.802791720E-3
2.364220000E-1,8.734340081E-4,-7.029324770E-4,1.044570818E-3,1.532360671E-3
2.463440000E-1,-4.458959447E-4,1.520275138E-3,2.321290318E-3,2.810417839E-3
2.562670000E-1,-2.294835169E-3,-1.745938323E-3,1.389246318E-3,3.200714672E-3
2.661900000E-1,-2.696705982E-3,2.826005220E-5,1.463548397E-3,3.068386497E-3
2.761120000E-1,2.120305086E-3,1.375543885E-3,1.781187137E-3,3.091996483E-3
2.860350000E-1,1.105374424E-3,-2.806764096E-4,-8.028779412E-4,1.394720349E-3
2.959570000E-1,-5.705363583E-5,-1.806955785E-3,-1.072321320E-4,1.811033698E-3
3.058800000E-1,-1.393694081E-3,-1.470332034E-3,2.390813082E-3,3.133727282E-3
3.158020000E-1,-1.336968853E-3,1.884984784E-3,-4.012450809E-4,2.345559840E-3
3.257250000E-1,-9.694526671E-4,4.660431296E-5,9.729460580E-4,1.374275979E-3
3.356480000E-1,1.227931352E-4,1.090255566E-3,4.089436261E-4,1.170884385E-3
3.455700000E-1,-1.495343517E-3,-1.156120561E-3,1.453169272E-3,2.384191250E-3
3.554930000E-1,-2.801326569E-3,9.965645149E-4,2.804210875E-3,4.087073527E-3
3.654150000E-1,-1.967490884E-3,9.615067393E-5,1.304584905E-3,2.362669486E-3
3.753380000E-1,-5.641195457E-5,-1.933969557E-3,2.901302651E-5,1.935009642E-3
3.852610000E-1,-1.183994347E-3,1.441585831E-3,1.007724670E-3,2.120264449E-3
3.951830000E-1,-3.426079638E-5,-1.282323152E-3,1.288253115E-4,1.289233272E-3
4.051060000E-1,5.798641359E-4,2.162476070E-3,2.891476033E-4,2.257465727E-3
4.150280000E-1,-4.038389307E-4,-8.529890329E-4,3.218495287E-3,3.354010746E-3
4.249510000E-1,6.031022640E-4,-2.873335034E-4,9.779777611E-4,1.184370459E-3
4.348740000E-1,2.073710319E-3,-2.205947414E-3,1.841382007E-3,3.543609202E-3
4.447960000E-1,1.562343095E-4,-1.133493148E-3,9.811808122E-4,1.507292826E-3
4.547190000E-1,-6.988754030E-4,-9.797783569E-4,1.282139099E-3,1.758486033E-3
4.646410000E-1,8.489290485E-5,-5.515422672E-4,3.797494806E-3,3.838277281E-3
4.745640000E-1,-1.972300233E-4,1.700543799E-3,2.736692782E-3,3.228039076E-3
4.844870000E-1,-2.104852349E-3,-7.221326232E-4,2.441082150E-3,3.303144108E-3
4.944090000E-1,5.743086804E-4,1.779229380E-3,6.431970978E-4,1.977167204E-3
5.043320000E-1,1.413737074E-3,1.783755608E-3,8.304173825E-4,2.422814399E-3
5.142540000E-1,3.561223275E-4,-3.571845591E-4,-1.026656362E-3,1.143865030E-3
5.241770000E-1,-1.246035448E-3,-2.270932309E-3,1.437333412E-5,2.590356054E-3
5.341000000E-1,1.295268303E-3,-2.160141245E-3,3.913055174E-3,4.653593339E-3
5.440220000E-1,-5.282380152E-5,-3.571817651E-4,2.570555545E-3,2.595789857E-3
5.539450000E-1,-2.491932828E-4,-1.018326730E-3,2.270617988E-3,2.500958350E-3
5.638670000E-1,5.998224951E-4,4.410846159E-4,1.279389602E-3,1.480263631E-3
5.737900000E-1,4.658970283E-4,1.662978902E-4,4.543639952E-4,6.716856925E-4
5.837130000E-1,-2.626033034E-3,-1.980743371E-3,1.137464889E-3,3.480405174E-3
5.936350000E-1,7.353669498E-4,1.521336846E-3,-5.137242842E-4,1.766109563E-3
6.035580000E-1,-6.097956793E-4,-6.824294105E-4,8.000129601E-4,1.215558064E-3
6.134800000E-1,7.853261195E-5,2.342567779E-3,1.608396997E-3,2.842662848E-3
6.234030000E-1,1.392536331E-3,-2.278016880E-3,2.754848683E-4,2.684103249E-3
6.333260000E-1,-1.448670519E-3,-1.238435507E-4,1.241580234E-3,1.911937492E-3
6.432480000E-1,2.531690057E-3,-1.184847206E-3,2.479950432E-3,3.736772885E-3
6.531710000E-1,2.995284158E-4,-7.138494402E-5,3.233779222E-3,3.248405938E-3
6.630930000E-1,7.469394477E-4,7.294286042E-4,3.562335623E-4,1.103126003E-3
6.730160000E-1,1.263834420E-4,-3.108968958E-4,-1.326626400E-3,1.368417794E-3
6.829396250E-1,-1.758852741E-4,2.619378269E-3,2.904603723E-3,3.915201264E-3
6.928616250E-1,-4.691906506E-4,-6.294753402E-4,2.783486154E-3,2.892088214E-3
7.027846250E-1,2.511944040E-4,1.770032570E-3,1.280397875E-3,2.198984458E-3
7.127066250E-1,-3.123444039E-4,-9.310003370E-4,1.490479801E-3,1.784895148E-3
7.226296250E-1,-4.609487951E-4,8.250875399E-4,1.058781520E-3,1.419246824E-3
7.325526250E-1,1.161800348E-3,1.031070016E-3,1.974238548E-4,1.565842140E-3
7.424746250E-1,3.408176824E-3,-1.694409177E-3,2.054445911E-3,4.325209790E-3
7.523976250E-1,4.863031209E-4,3.278646618E-4,1.018858282E-3,1.175609697E-3
7.623196250E-1,1.436785329E-3,1.485539600E-3,3.835683689E-3,4.357022991E-3
7.722426250E-1,1.575910836E-3,-8.545815945E-5,1.248188782E-4,1.583154386E-3
7.821646250E-1,1.113319770E-3,6.311982870E-4,1.754673664E-3,2.171813033E-3
7.920876250E-1,1.653916901E-3,-5.771154538E-4,2.199502662E-3,2.811817085E-3
8.020106250E-1,-2.710159170E-4,1.011136919E-5,1.512406860E-3,1.536530630E-3
8.119326250E-1,1.414481318E-3,2.457806841E-4,2.034177538E-3,2.489787902E-3
8.218556250E-1,-5.634484114E-4,1.466306858E-3,9.574615397E-4,1.839636517E-3
8.317776250E-1,-3.407063195E-4,-1.762328669E-3,2.503857482E-3,3.080776757E-3
8.417006250E-1,-1.309830579E-3,3.956630826E-5,-1.030157320E-3,1.666867044E-3
8.516236250E-1,2.377440687E-4,-1.474398188E-3,3.411703510E-3,3.724257389E-3
8.615456250E-1,-1.699705608E-3,-1.161742955E-3,1.638038550E-3,2.630934461E-3
8.714686250E-1,-2.884378191E-4,-1.849482767E-3,-1.306601334E-4,1.876394136E-3
8.813906250E-1,-9.728702717E-4,-6.832843646E-4,2.636896912E-3,2.892504004E-3
8.913136250E-1,1.054429216E-3,1.014296897E-3,2.371421084E-3,2.786441660E-3
9.012366250E-1,-8.960700361E-4,-3.235575743E-3,1.840919722E-3,3.828952510E-3
9.111586250E-1,5.219314480E-4,1.341877505E-3,3.361568786E-3,3.656937568E-3
9.210816250E-1,1.113685779E-3,-3.154082224E-4,1.101153903E-4,1.162713963E-3
9.310036250E-1,-2.794889268E-3,-2.124922350E-3,1.884256024E-3,3.984610618E-3
9.409266250E-1,-5.852644099E-4,2.450244501E-4,3.326982260E-4,7.164213287E-4
9.508496250E-1,-1.684754738E-3,8.055977523E-4,1.067088451E-3,2.150828684E-3
9.607716250E-1,-9.004538879E-4,7.467418909E-4,2.549936529E-3,2.805461987E-3
9.706946250E-1,-9.555784054E-4,1.922741532E-3,1.339415787E-3,2.530632280E-3
9.806166250E-1,-1.996341627E-3,2.452977002E-3,1.065110089E-3,3.337204753E-3
9.905396250E-1,-1.706096227E-3,1.032938249E-3,2.720314311E-3,3.373104759E-3
1.000462625E0,8.942141430E-4,-1.059241593E-3,-6.448562490E-4,1.528872548E-3
1.010384625E0,1.036712551E-3,-3.025038168E-3,5.373030435E-4,3.242579743E-3
1.020307625E0,1.081187394E-3,-1.193315722E-3,2.458774019E-3,2.939139036E-3
1.030229625E0,7.945962716E-5,1.924796030E-3,-3.289007582E-4,1.954310441E-3
1.040152625E0,-4.233263433E-3,6.459448487E-4,2.340918174E-3,4.880334204E-3
1.050075625E0,1.389120822E-3,-8.459780365E-4,-4.934191238E-4,1.699646413E-3
1.059997625E0,-1.830907306E-3,-2.024959773E-3,2.466733567E-4,2.741082156E-3
1.069920625E0,1.860870048E-3,1.577116549E-3,1.384128118E-3,2.804629136E-3
1.079842625E0,-2.632671967E-4,-1.811490394E-3,2.542869654E-3,3.133208123E-3
1.089765625E0,-7.225414738E-4,-1.399558969E-3,1.253474038E-3,2.012965139E-3
1.099688625E0,1.185080735E-3,5.075307563E-4,1.326977275E-3,1.850100675E-3
1.109610625E0,-1.777652535E-3,-3.707837313E-4,5.164304748E-4,1.887916721E-3
1.119533625E0,1.293771085E-3,9.831683710E-4,7.465276867E-4,1.788230202E-3
1.129455625E0,1.107671415E-4,-3.676209599E-3,6.621181965E-4,3.737002392E-3
1.139378625E0,-6.205368554E-4,-1.082290895E-3,1.962273149E-3,2.325281807E-3
1.149301625E0,-3.160315100E-5,2.018161118E-3,2.163555473E-5,2.018524499E-3
1.159223625E0,2.352458658E-3,-6.602890790E-5,4.951455630E-4,2.404909703E-3
1.169146625E0,-3.750619944E-4,2.453653142E-3,-2.576116938E-3,3.577354290E-3
1.179068625E0,1.479827915E-4,7.548220456E-4,-8.421328384E-4,1.140545021E-3
1.188991625E0,2.367924433E-3,-7.119020447E-4,4.348338116E-4,2.510567881E-3
1.198914625E0,-1.385801123E-3,7.986426353E-4,8.276500739E-4,1.800910729E-3
1.208836625E0,1.216065721E-3,6.051808596E-4,1.843364909E-3,2.289771582E-3
1.218759625E0,1.720734756E-3,-1.023873687E-3,1.685439143E-3,2.617241015E-3
1.228681625E0,1.030719141E-4,-1.647341065E-3,1.161448890E-3,2.018246746E-3
1.238604625E0,1.568677835E-4,-1.054254360E-3,1.132285688E-4,1.071858417E-3
1.248527625E0,-8.484324208E-4,6.856285036E-4,3.265345236E-3,3.442731986E-3
1.258449625E0,-1.970688347E-3,3.003377467E-3,2.458141418E-3,4.352740287E-3
1.268372625E0,6.662961678E-4,9.124269709E-4,2.681762446E-3,2.910038380E-3
1.278294625E0,1.302259043E-3,-1.042066142E-3,2.210116945E-3,2.768825991E-3
1.288217625E0,-1.483639586E-3,1.244688407E-3,1.123850700E-3,2.239079285E-3
1.298140625E0,-1.205605571E-3,-1.358939335E-4,4.292982630E-4,1.286953361E-3
1.308062625E0,1.658446039E-3,2.274812199E-3,2.427127678E-3,3.717009897E-3
1.317985625E0,4.017003230E-4,7.232548669E-4,2.128321212E-3,2.283464896E-3
1.327907625E0,-7.484925445E-4,1.140218228E-3,3.064028453E-3,3.353894610E-3
1.337830625E0,-3.716221545E-5,9.066592902E-4,3.798285034E-4,9.837081837E-4
1.347753625E0,-5.030521424E-4,3.880918026E-3,1.220752485E-3,4.099368587E-3
1.357675625E0,2.602992579E-3,-1.322003081E-4,4.949420691E-5,2.606817402E-3
1.367598625E0,-5.591710797E-4,-1.877953298E-3,8.391949814E-4,2.131579017E-3
1.377520625E0,-1.364777214E-3,-4.827231169E-4,3.411276033E-3,3.705731051E-3
1.387443625E0,8.713847492E-4,4.111481830E-4,3.565757070E-4,1.027375513E-3
1.397366625E0,-2.253049752E-4,1.603976823E-3,2.231440973E-3,2.757323484E-3
1.407288625E0,2.003112575E-3,6.629601121E-4,9.192051366E-4,2.301502592E-3
1.417211625E0,1.988997683E-3,1.062167808E-3,2.843605354E-3,3.629105075E-3
1.427133625E0,-1.115209423E-3,-6.497157738E-4,4.396075383E-4,1.363479898E-3
1.437056625E0,-1.220138045E-3,-4.384666681E-5,1.512595452E-3,1.943863262E-3
1.446979625E0,3.450493328E-3,2.170627005E-3,3.648023121E-4,4.092750485E-3
1.456901625E0,6.871973164E-4,2.688878216E-3,-1.709489152E-5,2.775355553E-3
1.466824625E0,2.756880131E-3,9.345924482E-4,-5.495200166E-4,2.962401618E-3
1.476746625E0,-5.358520430E-4,1.929020509E-4,1.933122985E-5,5.698441099E-4
1.486669625E0,1.961793983E-3,5.248691887E-4,1.161869615E-3,2.339671836E-3
1.496592625E0,2.800077200E-4,6.252713501E-4,1.436441671E-3,1.591456333E-3
1.506514625E0,1.331547159E-3,-8.975155652E-5,3.729069140E-4,1.385688545E-3
1.516437625E0,4.361923784E-4,-8.649975061E-4,-8.002156392E-4,1.256514841E-3
1.526359625E0,1.035902649E-3,-8.905921131E-4,1.741576008E-3,2.213444285E-3
1.536282625E0,-6.536067231E-4,1.001050696E-3,1.987386029E-3,2.319268737E-3
1.546205625E0,-4.927597474E-4,9.349733591E-5,-4.656796809E-4,6.844059364E-4
1.556127625E0,3.320212709E-4,9.089568630E-4,9.298166260E-4,1.342013286E-3
1.566050625E0,5.633593537E-5,-1.126283780E-3,-1.550139976E-3,1.916930576E-3
1.575972625E0,9.503591573E-4,-1.918841153E-3,7.327217609E-4,2.263186930E-3
1.585895625E0,-9.685879922E-4,-1.036214642E-3,1.185282599E-3,1.848458364E-3
1.595818625E0,1.528692083E-4,1.523350365E-3,8.276200388E-4,1.740379344E-3
1.605740625E0,1.351507963E-3,-1.542069018E-3,1.372355502E-3,2.467369095E-3
1.615663625E0,-6.053827237E-4,-2.279497683E-3,3.142825328E-3,3.929370048E-3
1.625585625E0,-1.612246851E-4,2.274915576E-3,-2.847367432E-4,2.298327498E-3
1.635508625E0,-1.631555846E-3,-6.174203008E-5,5.296578165E-4,1.716485933E-3
1.645431625E0,-1.710040029E-3,7.812855765E-4,4.603238776E-4,1.935598648E-3
1.655353625E0,3.760140389E-4,-1.649353653E-4,2.974880394E-3,3.003082348E-3
1.665276625E0,9.378863033E-4,9.078886360E-4,5.518344697E-4,1.417185159E-3
1.675197625E0,1.483468805E-5,-9.211702272E-4,1.275148941E-3,1.573143184E-3
1.685120625E0,-3.311133478E-4,7.235677913E-4,1.959867077E-3,2.115245933E-3
1.695043625E0,-1.624877099E-3,-5.624722689E-4,8.743626531E-4,1.929018063E-3
1.704965625E0,3.556751180E-3,8.510015905E-4,2.132178517E-3,4.233304607E-3
1.714888625E0,-7.602329715E-4,-7.958961651E-4,3.406501142E-3,3.579895936E-3
1.724810625E0,5.830095033E-4,-7.739914581E-4,1.135651022E-3,1.492871764E-3
1.734733625E0,3.593039582E-4,8.454760537E-4,-3.820758080E-3,3.929646472E-3
1.744656625E0,1.638962887E-3,3.051226959E-4,-9.512637043E-4,1.919427477E-3
1.754578625E0,4.277622793E-3,1.847892068E-3,-6.467735395E-3,7.971471821E-3
1.764501625E0,6.251233630E-3,4.388383590E-3,-8.116120473E-3,1.114483037E-2
1.774423625E0,1.050563343E-2,6.337818690E-3,-1.397693902E-2,1.859814786E-2
1.784346625E0,1.043580659E-2,1.041494589E-2,-1.754534431E-2,2.291759726E-2
1.794269625E0,1.440205239E-2,1.331406366E-2,-2.620514482E-2,3.273214046E-2
1.804191625E0,1.338577829E-2,1.923806965E-2,-3.155198321E-2,3.930407140E-2
1.814114625E0,2.127965353E-2,2.379553765E-2,-3.936276585E-2,5.068015984E-2
1.824036625E0,2.296745591E-2,2.808773890E-2,-4.842220247E-2,6.050731195E-2
1.833959625E0,2.848126553E-2,3.442100435E-2,-5.803648010E-2,7.324084277E-2
1.843882625E0,3.339814395E-2,3.789029643E-2,-6.548915058E-2,8.270392631E-2
1.853804625E0,3.619872406E-2,4.257985950E-2,-7.932906598E-2,9.703861483E-2
1.863727625E0,3.953219205E-2,4.896752164E-2,-9.117268026E-2,1.107838888E-1
1.873649625E0,4.573336244E-2,5.686379597E-2,-9.742631763E-2,1.217247678E-1
1.883572625E0,4.942931980E-2,5.895210057E-2,-1.130209714E-1,1.367199612E-1
1.893495625E0,5.394923687E-2,6.203284115E-2,-1.253175884E-1,1.498769212E-1
1.903417625E0,5.140231922E-2,6.667034328E-2,-1.381253600E-1,1.617583017E-1
1.913340625E0,5.347319320E-2,6.967465580E-2,-1.484285891E-1,1.724673480E-1
1.923262625E0,4.812685028E-2,7.281434536E-2,-1.583519131E-1,1.808133042E-1
1.933185625E0,3.395723552E-2,7.458055019E-2,-1.734983772E-1,1.918776673E-1
1.943108625E0,8.267789148E-3,7.044802606E-2,-1.861771941E-1,1.992315947E-1
1.953030625E0,-2.047251165E-2,7.042805105E-2,-1.982780546E-1,2.114081858E-1
1.962953625E0,-4.527208209E-2,6.599378586E-2,-2.162077576E-1,2.305439993E-1
1.972875625E0,-5.911386386E-2,6.760979444E-2,-2.291304767E-1,2.461022319E-1
1.982798625E0,-5.850045010E-2,6.782280654E-2,-2.433114946E-1,2.592734447E-1
1.992720625E0,-5.196825042E-2,6.917409599E-2,-2.619174123E-1,2.758377883E-1
2.002643625E0,-4.439860582E-2,7.261683047E-2,-2.814674973E-1,2.940550838E-1
2.012566625E0,-3.406075016E-2,7.181867957E-2,-2.970688045E-1,3.075189946E-1
2.022488625E0,-2.840183862E-2,7.838153094E-2,-3.136678040E-1,3.245578840E-1
2.032411625E0,-1.869781315E-2,7.927555591E-2,-3.328361511E-1,3.426574463E-1
2.042333625E0,-1.653766073E-2,8.192496747E-2,-3.513301611E-1,3.611344301E-1
2.052256625E0,-7.418197580E-3,8.035077155E-2,-3.669698536E-1,3.757368090E-1
2.062179625E0,-1.114105247E-2,6.961784512E-2,-3.832257986E-1,3.896572598E-1
2.072101625E0,-2.154655568E-2,5.191394687E-2,-3.987624347E-1,4.027043472E-1
2.082024625E0,-3.734366596E-2,2.817614749E-2,-4.202478528E-1,4.228435910E-1
2.091946625E0,-4.999048635E-2,5.993084051E-3,-4.375253916E-1,4.404127996E-1
2.101869625E0,-5.472733825E-2,-8.488913998E-3,-4.578975737E-1,4.612345729E-1
2.111792625E0,-4.535540566E-2,-1.614124142E-2,-4.779027104E-1,4.803214061E-1
2.121714625E0,-3.262718022E-2,-1.683814824E-2,-4.959627390E-1,4.973199117E-1
2.131637625E0,-2.297375165E-2,-1.282263361E-2,-5.188733935E-1,5.195400001E-1
2.141559625E0,-1.154210232E-2,-1.224574260E-2,-5.358627439E-1,5.361269053E-1
2.151482625E0,1.758788712E-3,-1.003931277E-2,-5.541072488E-1,5.542009782E-1
2.161405625E0,1.094170753E-2,-9.303184226E-3,-5.743029714E-1,5.744825264E-1
2.171327625E0,1.809229515E-2,-1.004034653E-2,-5.913856030E-1,5.917474724E-1
2.181250625E0,3.165727854E-2,-8.699333295E-3,-6.102749109E-1,6.111573681E-1
2.191172625E0,3.984543309E-2,-8.373629302E-3,-6.282331347E-1,6.295511479E-1
2.201095625E0,5.054198951E-2,-1.089409553E-2,-6.453351974E-1,6.474030360E-1
2.211018625E0,5.752373114E-2,-1.116706897E-2,-6.613943577E-1,6.639850747E-1
2.220940625E0,6.719176471E-2,-1.174974442E-2,-6.762973666E-1,6.797285619E-1
2.230863625E0,7.347016037E-2,-1.279556751E-2,-6.932526827E-1,6.972523740E-1
2.240785625E0,7.079736143E-2,-2.295143716E-2,-7.097116113E-1,7.136032553E-1
2.250708625E0,6.215886772E-2,-3.456095606E-2,-7.264157534E-1,7.298890541E-1
2.260631625E0,4.267241061E-2,-5.251840129E-2,-7.432838082E-1,7.463577806E-1
2.270553625E0,2.512457594E-2,-6.479956955E-2,-7.582073808E-1,7.613860130E-1
2.280476625E0,1.392973214E-2,-7.244112343E-2,-7.768878341E-1,7.803822528E-1
2.290398625E0,1.679502614E-2,-7.007330656E-2,-7.943105102E-1,7.975722712E-1
2.300321625E0,2.050192468E-2,-6.828874350E-2,-8.135036230E-1,8.166222052E-1
2.310244625E0,2.818514407E-2,-6.472170353E-2,-8.309984207E-1,8.339914127E-1
2.320166625E0,3.000355884E-2,-5.970012024E-2,-8.510206342E-1,8.536395244E-1
2.330089625E0,3.655120730E-2,-5.550058186E-2,-8.693261147E-1,8.718624886E-1
2.340011625E0,4.051040113E-2,-5.082613602E-2,-8.873840570E-1,8.897611215E-1
2.349934625E0,4.281963035E-2,-4.710649699E-2,-9.051934481E-1,9.074291825E-1
2.359857625E0,4.743646458E-2,-4.312705621E-2,-9.231016040E-1,9.253252036E-1
2.369779625E0,4.953823239E-2,-3.947320208E-2,-9.371178150E-1,9.392560723E-1
2.379702625E0,4.724994674E-2,-3.416647017E-2,-9.562641382E-1,9.580401908E-1
2.389624625E0,3.511951491E-2,-3.011020832E-2,-9.730274081E-1,9.741264507E-1
2.399547625E0,1.875200123E-2,-3.052780032E-2,-9.891409278E-1,9.897895530E-1
2.409469625E0,1.987935044E-3,-2.550614253E-2,-1.006418228E0,1.006743346E0
2.419392625E0,-1.414452307E-2,-2.223114297E-2,-1.021656871E0,1.021996601E0
2.429315625E0,-2.124877088E-2,-1.401262730E-2,-1.041096926E0,1.041408024E0
2.439237625E0,-2.041267976E-2,-8.884237148E-3,-1.060174584E0,1.060408297E0
2.449160625E0,-2.272483706E-2,4.016914405E-3,-1.078316092E0,1.078563002E0
2.459082625E0,-2.487630583E-2,9.954244830E-3,-1.099243045E0,1.099569547E0
2.469005625E0,-2.159049734E-2,2.022765577E-2,-1.119995952E0,1.120386647E0
2.478928625E0,-2.099427395E-2,3.048897907E-2,-1.139306784E0,1.139908016E0
2.488850625E0,-1.231583022E-2,3.832080215E-2,-1.159420848E0,1.160119333E0
2.498773625E0,-1.083181705E-2,4.799348488E-2,-1.179931283E0,1.180956619E0
2.508695625E0,-5.914556794E-3,5.412328616E-2,-1.201910615E0,1.203143150E0
2.518618625E0,1.099243411E-3,6.100524589E-2,-1.221416950E0,1.222939988E0
2.528541625E0,6.819260307E-4,6.939925998E-2,-1.243318439E0,1.245253975E0
2.538463625E0,4.168437794E-3,7.358592749E-2,-1.263388634E0,1.265536686E0
2.548386625E0,7.404976990E-3,7.887336612E-2,-1.282929778E0,1.285373353E0
2.558308625E0,2.529220423E-3,7.617907226E-2,-1.302896261E0,1.305123870E0
2.568231625E0,-1.500982605E-2,5.903656781E-2,-1.324626923E0,1.326026808E0
2.578154625E0,-3.485458344E-2,3.358065337E-2,-1.341531754E0,1.342404540E0
2.588076625E0,-4.963486269E-2,7.550652139E-3,-1.363111019E0,1.364035294E0
2.597999625E0,-6.466601044E-2,-8.508210070E-3,-1.384995341E0,1.386530266E0
2.607921625E0,-5.728612468E-2,-1.344677620E-2,-1.408888936E0,1.410117211E0
2.617844625E0,-5.050708726E-2,-1.147308666E-2,-1.428995371E0,1.429933693E0
2.627767625E0,-4.232559353E-2,-5.765399896E-3,-1.448366165E0,1.448995943E0
2.637689625E0,-3.913388774E-2,3.243393265E-3,-1.471146584E0,1.471670565E0
2.647612625E0,-2.608972602E-2,3.748861142E-3,-1.489145756E0,1.489379001E0
2.657534625E0,-2.261498384E-2,1.017267536E-2,-1.512584805E0,1.512788060E0
2.667457625E0,-1.063581835E-2,1.513041463E-2,-1.538459063E0,1.538570225E0
2.677381375E0,-8.870304446E-4,2.334959060E-2,-1.557418466E0,1.557593743E0
2.687303375E0,7.027351763E-3,2.443482727E-2,-1.580951214E0,1.581155649E0
2.697226375E0,1.248015277E-2,2.540808916E-2,-1.599413753E0,1.599664239E0
2.707148375E0,2.157671191E-2,1.749929786E-2,-1.618384719E0,1.618623143E0
2.717071375E0,3.391679749E-2,5.794010125E-3,-1.640902996E0,1.641263709E0
2.726993375E0,4.224849492E-2,-9.137535468E-3,-1.660771012E0,1.661333436E0
2.736916375E0,4.922017083E-2,-2.294159122E-2,-1.677865028E0,1.678743576E0
2.746839375E0,5.632681772E-2,-3.010283038E-2,-1.700418234E0,1.701617190E0
2.756761375E0,6.482228637E-2,-3.522162139E-2,-1.719719291E0,1.721300941E0
2.766684375E0,7.173904777E-2,-3.096402436E-2,-1.742382169E0,1.744133276E0
2.776606375E0,7.769541442E-2,-3.296309710E-2,-1.764540195E0,1.766557456E0
2.786529375E0,8.032049239E-2,-2.416534536E-2,-1.786637306E0,1.788605102E0
2.796452375E0,8.626570553E-2,-1.487309393E-2,-1.808712363E0,1.810829477E0
2.806374375E0,1.019693017E-1,-1.860045455E-2,-1.831222773E0,1.834153908E0
2.816297375E0,9.929203242E-2,-1.131704636E-2,-1.849423170E0,1.852121229E0
2.826219375E0,1.014222950E-1,-1.881704107E-2,-1.871837139E0,1.874677262E0
2.836142375E0,8.651248366E-2,-3.045380116E-2,-1.890692234E0,1.892915468E0
2.846065375E0,7.964925468E-2,-4.712678865E-2,-1.912133574E0,1.914371893E0
2.855987375E0,6.565066427E-2,-6.393755972E-2,-1.932220221E0,1.934392153E0
2.865910375E0,5.164749920E-2,-6.861433387E-2,-1.949813247E0,1.951703637E0
2.875832375E0,4.768024012E-2,-6.344496459E-2,-1.968570352E0,1.970169510E0
2.885755375E0,4.640271887E-2,-6.107021868E-2,-1.982887268E0,1.984370102E0
2.895678375E0,4.133741185E-2,-5.521807075E-2,-1.999848962E0,2.001038152E0
2.905600375E0,3.522519022E-2,-5.374401063E-2,-2.009905100E0,2.010932058E0
2.915523375E0,3.405388072E-2,-4.959018528E-2,-2.019281626E0,2.020177501E0
2.925445375E0,2.708811313E-2,-5.229622498E-2,-2.023471594E0,2.024328519E0
2.935368375E0,3.074883297E-2,-5.392963812E-2,-2.025012970E0,2.025964320E0
2.945291375E0,2.557564154E-2,-6.196306273E-2,-2.029057026E0,2.030164020E0
2.955213375E0,2.343108319E-2,-6.672856957E-2,-2.025942326E0,2.027176367E0
2.965136375E0,2.516213804E-2,-6.953980029E-2,-2.027913570E0,2.029261532E0
2.975058375E0,2.272916585E-2,-7.488887012E-2,-2.027305603E0,2.028815656E0
2.984981375E0,2.009769715E-2,-7.398286462E-2,-2.026790380E0,2.028239786E0
2.994903375E0,2.266085707E-2,-7.562775910E-2,-2.028468132E0,2.030003950E0
3.004826375E0,2.095377073E-2,-7.594254613E-2,-2.027810097E0,2.029339824E0
3.014749375E0,2.230911329E-2,-7.931987196E-2,-2.025885582E0,2.027560537E0
3.024671375E0,2.108539082E-2,-8.037608117E-2,-2.025204182E0,2.026908208E0
3.034594375E0,2.044116147E-2,-8.041621745E-2,-2.025784969E0,2.027483502E0
3.044516375E0,2.170669474E-2,-7.934430242E-2,-2.024184704E0,2.025855477E0
3.054439375E0,2.232702821E-2,-8.517346531E-2,-2.025886774E0,2.027799358E0
3.064362375E0,1.826810464E-2,-8.031240106E-2,-2.023903847E0,2.025579074E0
3.074284375E0,1.663853787E-2,-7.958789170E-2,-2.024472952E0,2.026105083E0
3.084207375E0,2.185513824E-2,-8.222575486E-2,-2.024529219E0,2.026316184E0
3.094129375E0,1.472655032E-2,-7.653865963E-2,-2.023195982E0,2.024696772E0
3.104052375E0,1.195872668E-2,-8.270627260E-2,-2.024761200E0,2.026484951E0
3.113975375E0,1.416940615E-2,-8.049605042E-2,-2.024942160E0,2.026591014E0
3.123897375E0,1.214860007E-2,-7.785019279E-2,-2.022998810E0,2.024532644E0
3.133820375E0,1.398667134E-2,-7.866323739E-2,-2.024861813E0,2.026437488E0
3.143742375E0,1.067556348E-2,-7.885338366E-2,-2.023129940E0,2.024694194E0
3.153665375E0,1.585749350E-2,-7.775101066E-2,-2.023773909E0,2.025328989E0
3.163588375E0,5.135341547E-3,-7.677789032E-2,-2.023504257E0,2.024966838E0
3.173510375E0,1.353320852E-2,-7.274299860E-2,-2.022363424E0,2.023716510E0
3.183433375E0,9.198381566E-3,-6.917729229E-2,-2.022759438E0,2.023962907E0
3.193355375E0,8.946591988E-3,-7.273494452E-2,-2.022144079E0,2.023471544E0
3.203278375E0,9.229153395E-3,-7.311417907E-2,-2.023949623E0,2.025290828E0
3.213200375E0,6.423409097E-3,-6.720338017E-2,-2.022566319E0,2.023692681E0
3.223123375E0,8.133158088E-3,-6.430239975E-2,-2.021767139E0,2.022805802E0
3.233046375E0,3.635612084E-3,-5.945730954E-2,-2.022513866E0,2.023390899E0
3.242968375E0,8.962845895E-4,-6.336816400E-2,-2.023130894E0,2.024123252E0
3.252891375E0,-1.830505207E-3,-5.549067259E-2,-2.022269726E0,2.023031737E0
3.262813375E0,-3.384992247E-3,-5.375881866E-2,-2.021084309E0,2.021801981E0
3.272736375E0,-1.302176528E-2,-5.687572062E-2,-2.020508528E0,2.021350817E0
3.282659375E0,-1.100308914E-2,-4.628486186E-2,-2.022691488E0,2.023250902E0
3.292581375E0,-1.636322401E-2,-4.022704437E-2,-2.019746065E0,2.020212894E0
3.302504375E0,-2.123600990E-2,-3.834179044E-2,-2.021051884E0,2.021527090E0
3.312426375E0,-2.026844025E-2,-2.904125489E-2,-2.023249865E0,2.023559789E0
3.322349375E0,-2.946726605E-2,-2.961942554E-2,-2.019170761E0,2.019602979E0
3.332272375E0,-3.229559213E-2,-2.428394929E-2,-2.019350052E0,2.019754279E0
3.342194375E0,-3.436966240E-2,-2.331908606E-2,-2.020042419E0,2.020469359E0
3.352117375E0,-3.685996309E-2,-1.942756213E-2,-2.022039652E0,2.022468897E0
3.362039375E0,-4.154366627E-2,-1.573801786E-2,-2.019541025E0,2.020029582E0
3.371962375E0,-4.296438023E-2,-1.170576736E-2,-2.018219233E0,2.018710438E0
3.381884375E0,-4.409995303E-2,-7.712090854E-3,-2.019393921E0,2.019890118E0
3.391807375E0,-5.041024834E-2,-5.162009969E-3,-2.018880844E0,2.019516700E0
3.401730375E0,-4.920197278E-2,-8.183365688E-3,-2.019633055E0,2.020248865E0
3.411652375E0,-4.848224670E-2,-6.881039590E-4,-2.019620180E0,2.020202137E0
3.421575375E0,-4.879543558E-2,2.295701765E-3,-2.018030643E0,2.018621793E0
3.431497375E0,-4.808295518E-2,2.928427421E-3,-2.017482042E0,2.018057070E0
3.441420375E0,-4.808748513E-2,4.120192491E-3,-2.020250797E0,2.020827223E0
3.451343375E0,-5.019742250E-2,7.807034068E-3,-2.016394854E0,2.017034689E0
3.461265375E0,-4.632757977E-2,6.537239067E-3,-2.017181158E0,2.017723669E0
3.471188375E0,-4.635180905E-2,7.354757749E-3,-2.017879725E0,2.018425417E0
3.481110375E0,-4.980699718E-2,9.211246856E-3,-2.016475439E0,2.017111494E0
3.491033375E0,-4.660670459E-2,1.044290792E-2,-2.018719196E0,2.019284139E0
3.500956375E0,-4.864988104E-2,8.687884547E-3,-2.018069267E0,2.018674282E0
3.510878375E0,-4.315924272E-2,1.276678126E-2,-2.016926765E0,2.017428881E0
3.520801375E0,-4.601414874E-2,1.227542851E-2,-2.017992973E0,2.018554837E0
3.530723375E0,-4.825257882E-2,1.220940147E-2,-2.017706633E0,2.018320449E0
3.540646375E0,-4.286660254E-2,1.663743705E-2,-2.016436577E0,2.016960788E0
3.550568375E0,-4.728020728E-2,1.336698513E-2,-2.014740944E0,2.015339963E0
3.560491375E0,-3.987209126E-2,1.638434455E-2,-2.017512560E0,2.017973032E0
3.570414375E0,-4.417414963E-2,1.708655059E-2,-2.015641451E0,2.016197848E0
3.580336375E0,-4.474912584E-2,1.692090183E-2,-2.014086962E0,2.014655080E0
3.590259375E0,-3.940168396E-2,1.727506146E-2,-2.016074419E0,2.016533407E0
3.600181375E0,-4.407260194E-2,2.343228832E-2,-2.016277790E0,2.016895534E0
3.610104375E0,-4.186258093E-2,1.780705154E-2,-2.016536236E0,2.017049319E0
3.620027375E0,-3.894242272E-2,2.049817517E-2,-2.016618013E0,2.017098138E0
3.629949375E0,-3.723106161E-2,2.126347274E-2,-2.014703035E0,2.015159202E0
3.639872375E0,-3.793094307E-2,2.273939550E-2,-2.012679815E0,2.013165635E0
3.649794375E0,-3.703892604E-2,2.262269706E-2,-2.014111280E0,2.014578844E0
3.659717375E0,-3.302154690E-2,2.280538902E-2,-2.014223576E0,2.014623320E0
3.669640375E0,-3.560241312E-2,2.378322184E-2,-2.015525341E0,2.015980053E0
3.679563000E0,-3.054613061E-2,2.433769405E-2,-2.015331268E0,2.015709679E0
3.689486000E0,-3.089456446E-2,2.457962185E-2,-2.013782024E0,2.014168978E0
3.699408000E0,-2.912329696E-2,2.781855687E-2,-2.015511751E0,2.015914100E0
3.709331000E0,-2.726424672E-2,3.181933984E-2,-2.014113426E0,2.014549256E0
3.719253000E0,-2.127506398E-2,2.786028385E-2,-2.014634132E0,2.014939084E0
3.729176000E0,-2.503311262E-2,3.548108786E-2,-2.013153553E0,2.013621810E0
3.739099000E0,-1.956298016E-2,3.512075916E-2,-2.011397600E0,2.011799315E0
3.749021000E0,-1.509985700E-2,3.097392619E-2,-2.013781309E0,2.014076104E0
3.758944000E0,-1.887701824E-2,4.245560989E-2,-2.013442516E0,2.013978547E0
3.768866000E0,-1.695048809E-2,4.068194702E-2,-2.011650324E0,2.012133039E0
3.778789000E0,-1.568042673E-2,4.190886393E-2,-2.011841774E0,2.012339323E0
3.788712000E0,-1.265244372E-2,4.417276382E-2,-2.011654377E0,2.012179080E0
3.798634000E0,-9.276087396E-3,4.499834403E-2,-2.010707855E0,2.011232701E0
3.808557000E0,-1.166758593E-2,4.367966950E-2,-2.011201382E0,2.011709483E0
3.818479000E0,-5.614486989E-3,4.379045963E-2,-2.016170740E0,2.016654056E0
3.828402000E0,-4.602485802E-3,4.689170793E-2,-2.013534546E0,2.014085744E0
3.838324000E0,-4.223518074E-3,4.860838503E-2,-2.010139704E0,2.010731768E0
3.848247000E0,5.271184491E-4,4.515521228E-2,-2.013787746E0,2.014294010E0
3.858170000E0,-3.360830247E-3,4.527798295E-2,-2.010629177E0,2.011141735E0
3.868092000E0,2.884662710E-3,4.881627485E-2,-2.011393547E0,2.011987910E0
3.878015000E0,1.247085049E-3,4.727004096E-2,-2.013853788E0,2.014408869E0
3.887937000E0,3.214126918E-3,4.571347311E-2,-2.013430357E0,2.013951800E0
3.897860000E0,3.951822408E-3,4.991141334E-2,-2.011875153E0,2.012498049E0
3.907783000E0,7.726441603E-3,4.986341298E-2,-2.014313459E0,2.014945352E0
3.917705000E0,5.860364530E-3,4.542179406E-2,-2.012199163E0,2.012720288E0
3.927628000E0,7.788516115E-3,4.761983827E-2,-2.011182785E0,2.011761543E0
3.937550000E0,8.172811009E-3,4.822384194E-2,-2.012272596E0,2.012866944E0
3.947473000E0,1.165941916E-2,4.191240296E-2,-2.012029409E0,2.012499674E0
3.957396000E0,1.225463580E-2,4.563896731E-2,-2.010454893E0,2.011010186E0
3.967318000E0,1.268166490E-2,4.383834079E-2,-2.010613918E0,2.011131759E0
3.977241000E0,1.809746958E-2,4.229317605E-2,-2.010511398E0,2.011037621E0
3.987163000E0,1.947953552E-2,3.950430453E-2,-2.009128571E0,2.009611319E0
3.997086000E0,2.161405981E-2,3.464190289E-2,-2.007809401E0,2.008224544E0
4.007008000E0,2.264629118E-2,3.573521599E-2,-2.009737015E0,2.010182263E0
4.016931000E0,2.272432297E-2,3.350481763E-2,-2.010946274E0,2.011353744E0
4.026854000E0,2.253423259E-2,3.629297018E-2,-2.008163214E0,2.008617551E0
4.036776000E0,2.463147230E-2,3.084893525E-2,-2.011045694E0,2.011433109E0
4.046699000E0,1.787110977E-2,2.644836158E-2,-2.012917995E0,2.013171068E0
4.056621000E0,1.966075413E-2,2.727820352E-2,-2.009213448E0,2.009494793E0
4.066544000E0,2.458310686E-2,2.372613177E-2,-2.008561850E0,2.008852399E0
4.076467000E0,2.322276309E-2,2.132342756E-2,-2.006886721E0,2.007134349E0
4.086389000E0,2.675936930E-2,1.782346889E-2,-2.009041309E0,2.009298565E0
4.096312000E0,2.877298556E-2,1.053066645E-2,-2.009092093E0,2.009325712E0
4.106234000E0,2.612535283E-2,1.195329148E-2,-2.008821726E0,2.009027163E0
4.116157000E0,2.927640453E-2,6.842953153E-3,-2.007186174E0,2.007411336E0
4.126079000E0,2.692413703E-2,6.361530162E-3,-2.007354259E0,2.007544894E0
4.136002000E0,2.842136659E-2,-1.266563311E-3,-2.008367062E0,2.008568553E0
4.145925000E0,2.763939090E-2,-1.139696687E-4,-2.008478165E0,2.008668337E0
4.155847000E0,2.793446928E-2,-4.304187372E-3,-2.007429123E0,2.007628089E0
4.165770000E0,2.752929926E-2,-9.863624349E-3,-2.007530451E0,2.007743426E0
4.175692000E0,2.515296079E-2,-1.267166249E-2,-2.006856203E0,2.007053826E0
4.185615000E0,2.910474315E-2,-1.925761998E-2,-2.004565716E0,2.004869485E0
4.195538000E0,2.927225456E-2,-1.660138369E-2,-2.006370068E0,2.006652267E0
4.205460000E0,2.685770206E-2,-1.872934587E-2,-2.005088568E0,2.005355901E0
4.215383000E0,2.879381925E-2,-2.166974172E-2,-2.007137299E0,2.007460783E0
4.225305000E0,2.507630363E-2,-2.497361973E-2,-2.007211447E0,2.007523423E0
4.235228000E0,2.590827458E-2,-2.729483321E-2,-2.009192228E0,2.009544639E0
4.245151000E0,2.482754365E-2,-2.884092182E-2,-2.004422188E0,2.004783408E0
4.255073000E0,2.724143304E-2,-3.068010136E-2,-2.004817009E0,2.005236795E0
4.264996000E0,2.640748397E-2,-3.401865065E-2,-2.005494118E0,2.005956450E0
4.274918000E0,2.181566134E-2,-3.552147374E-2,-2.004768133E0,2.005201478E0
4.284841000E0,2.608229220E-2,-3.706727922E-2,-2.005770683E0,2.006282708E0
4.294763000E0,1.893623360E-2,-4.266391322E-2,-2.006103277E0,2.006646244E0
4.304686000E0,2.232891321E-2,-3.905139118E-2,-2.003675461E0,2.004180367E0
4.314609000E0,2.145592868E-2,-4.491460696E-2,-2.005063057E0,2.005680817E0
4.324531000E0,2.279713005E-2,-4.676172137E-2,-2.003695250E0,2.004370480E0
4.334454000E0,1.950492896E-2,-4.423997551E-2,-2.005441904E0,2.006024638E0
4.344376000E0,2.066939697E-2,-4.525955766E-2,-2.002797127E0,2.003415080E0
4.354299000E0,2.267369255E-2,-4.929877445E-2,-2.004563093E0,2.005297399E0
4.364221000E0,2.189711481E-2,-4.880528897E-2,-2.002742290E0,2.003456544E0
4.374144000E0,2.131867595E-2,-4.813843220E-2,-2.004333019E0,2.005024351E0
4.384067000E0,2.088301070E-2,-4.977250844E-2,-2.005092144E0,2.005818513E0
4.393989000E0,2.227131650E-2,-5.022684485E-2,-2.003477812E0,2.004231047E0
4.403912000E0,2.421783470E-2,-5.286636204E-2,-2.006399632E0,2.007242097E0
4.413834000E0,2.204575948E-2,-5.137179419E-2,-2.005769253E0,2.006548124E0
4.423757000E0,1.777010411E-2,-4.889036715E-2,-2.004584074E0,2.005258925E0
4.433680000E0,2.601684816E-2,-4.880408198E-2,-2.002593517E0,2.003357060E0
4.443602000E0,2.243976295E-2,-4.625913128E-2,-2.002805948E0,2.003465776E0
4.453525000E0,2.848833427E-2,-4.265507683E-2,-2.002729416E0,2.003386172E0
4.463447000E0,2.731906436E-2,-4.389882088E-2,-2.001829147E0,2.002496785E0
4.473370000E0,2.872867696E-2,-3.656074777E-2,-2.005098104E0,2.005637164E0
4.483292000E0,3.515806794E-2,-3.376781940E-2,-2.002920389E0,2.003513524E0
4.493215000E0,2.868791856E-2,-3.170466796E-2,-2.002095699E0,2.002552215E0
4.503138000E0,3.656209633E-2,-3.053694405E-2,-2.003030539E0,2.003596923E0
4.513060000E0,3.438123688E-2,-2.316371538E-2,-2.002919197E0,2.003348182E0
4.522983000E0,3.697889298E-2,-2.372171916E-2,-2.003130674E0,2.003612402E0
4.532905000E0,3.893498704E-2,-1.301474683E-2,-2.002958536E0,2.003379199E0
4.542828000E0,3.750102594E-2,-1.203712076E-2,-2.002841234E0,2.003228451E0
4.552751000E0,3.680141270E-2,-7.802161388E-3,-2.002598763E0,2.002952077E0
4.562673000E0,3.708879650E-2,4.781861790E-3,-2.000974894E0,2.001324304E0
4.572596000E0,3.259311616E-2,2.688351087E-3,-2.002697468E0,2.002964474E0
4.582518000E0,3.469277173E-2,3.029626794E-3,-2.002745628E0,2.003048382E0
4.592441000E0,2.715176716E-2,1.333978679E-2,-2.003482580E0,2.003710962E0
4.602364000E0,2.967922762E-2,1.442176010E-2,-1.998973250E0,1.999245583E0
4.612286000E0,2.417127788E-2,1.915606111E-2,-2.000476599E0,2.000714329E0
4.622209000E0,2.042426169E-2,1.919085905E-2,-1.999389768E0,1.999586178E0
4.632131000E0,2.096967772E-2,2.177865431E-2,-2.003219843E0,2.003447972E0
4.642054000E0,1.730921492E-2,2.503267676E-2,-1.999563575E0,1.999795173E0
4.651976000E0,1.077568159E-2,2.037774026E-2,-2.000485897E0,2.000618702E0
4.661899000E0,1.146465167E-2,2.512688190E-2,-2.004225969E0,2.004416258E0
4.671822000E0,6.303711794E-3,2.274095640E-2,-2.000898123E0,2.001037277E0
4.681743542E0,4.861958325E-3,2.037097886E-2,-1.999634147E0,1.999743818E0
4.691666542E0,2.106385771E-3,1.862367615E-2,-2.000987291E0,2.001075066E0
4.701588542E0,-4.684092943E-3,1.772395894E-2,-2.000826359E0,2.000910342E0
4.711511542E0,-3.372219857E-3,1.686189324E-2,-1.999546409E0,1.999620348E0
4.721433542E0,-5.602676887E-3,1.519945543E-2,-2.000719786E0,2.000785364E0
4.731356542E0,-6.714547053E-3,1.038472820E-2,-1.999470830E0,1.999509072E0
4.741279542E0,-1.076225471E-2,8.181015961E-3,-1.996557355E0,1.996603122E0
4.751201542E0,-1.391437184E-2,8.536548354E-3,-1.999066114E0,1.999132765E0
4.761124542E0,-1.512398943E-2,1.045169774E-2,-1.999462605E0,1.999547119E0
4.771046542E0,-1.612480544E-2,2.501362003E-3,-1.999739289E0,1.999805863E0
4.780969542E0,-1.698948443E-2,1.632000320E-3,-1.998877883E0,1.998950749E0
4.790892542E0,-2.324977703E-2,-1.957939938E-3,-1.996698618E0,1.996834935E0
4.800814542E0,-1.949263923E-2,-4.045486450E-3,-2.000455618E0,2.000554675E0
4.810737542E0,-2.122156322E-2,-7.103327662E-3,-2.000370026E0,2.000495202E0
4.820659542E0,-2.522565611E-2,-1.090451330E-2,-1.996688128E0,1.996877242E0
4.830582542E0,-2.347143181E-2,-1.055697072E-2,-2.001365423E0,2.001530893E0
4.840504542E0,-2.277992293E-2,-1.372399088E-2,-1.998646259E0,1.998823189E0
4.850427542E0,-2.877629548E-2,-1.805535704E-2,-1.997125864E0,1.997414776E0
4.860350542E0,-2.342078090E-2,-1.720909961E-2,-2.001131296E0,2.001342337E0
4.870272542E0,-2.940543741E-2,-2.291465551E-2,-1.996125937E0,1.996474021E0
4.880195542E0,-2.672634646E-2,-2.384667844E-2,-1.998296976E0,1.998617964E0
4.890117542E0,-2.522139437E-2,-2.780599892E-2,-1.998991489E0,1.999343959E0
4.900040542E0,-2.478270233E-2,-3.322069719E-2,-1.996976018E0,1.997406071E0
4.909963542E0,-2.451345697E-2,-3.460926935E-2,-1.994113684E0,1.994564638E0
4.919885542E0,-2.031175792E-2,-3.540629894E-2,-1.997287631E0,1.997704697E0
4.929808542E0,-2.307238989E-2,-3.747264668E-2,-1.997000813E0,1.997485615E0
4.939730542E0,-2.479778975E-2,-4.064622149E-2,-1.994739890E0,1.995308065E0
4.949653542E0,-2.402813733E-2,-4.093224555E-2,-1.999322653E0,1.999885964E0
4.959575542E0,-1.907611080E-2,-3.938091174E-2,-1.995284915E0,1.995764677E0
4.969498542E0,-1.605661772E-2,-3.806903586E-2,-1.994492650E0,1.994920549E0
4.979421542E0,-1.389367133E-2,-3.882381320E-2,-1.995761633E0,1.996187571E0
4.989343542E0,-1.372455992E-2,-3.393611312E-2,-1.994640946E0,1.994976824E0
4.999266542E0,-1.313095167E-2,-3.498665988E-2,-1.995039701E0,1.995389661E0
5.009188542E0,-1.204944216E-2,-3.670733050E-2,-1.993356586E0,1.993730948E0
5.019111542E0,-1.257091016E-2,-3.465921804E-2,-1.997398973E0,1.997739208E0
5.029033542E0,-1.058365870E-2,-3.145809844E-2,-1.993550181E0,1.993826460E0
5.038956542E0,-1.083193813E-2,-2.916248888E-2,-1.997448921E0,1.997691161E0
5.048879542E0,-8.535760455E-3,-2.698375657E-2,-1.996192932E0,1.996393550E0
5.058801542E0,-5.550950300E-3,-2.232357673E-2,-1.993829489E0,1.993962183E0
5.068724542E0,-2.292572754E-3,-1.963325031E-2,-1.995102763E0,1.995200681E0
5.078646542E0,-3.478467930E-3,-1.654884592E-2,-1.992161632E0,1.992233403E0
5.088569542E0,-2.269659191E-3,-1.013062894E-2,-1.991345048E0,1.991372110E0
5.098491542E0,3.029846353E-3,-7.491465658E-3,-1.994422197E0,1.994438568E0
5.108414542E0,-1.463172724E-3,-4.506860860E-3,-1.993738055E0,1.993743686E0
5.118337542E0,2.225121483E-3,2.327545546E-3,-1.994170666E0,1.994173265E0
5.128259542E0,-7.986315177E-4,1.147232018E-3,-1.994982362E0,1.994982852E0
5.138182542E0,3.247775370E-3,4.000277258E-3,-1.994436741E0,1.994443397E0
5.148104542E0,2.660590690E-4,1.196234766E-2,-1.994151235E0,1.994187131E0
5.158027542E0,3.034035210E-3,1.310642343E-2,-1.994511366E0,1.994556736E0
5.167950542E0,1.231607748E-3,1.614668965E-2,-1.993365407E0,1.993431182E0
5.177872542E0,3.951485269E-3,1.754014939E-2,-1.989946127E0,1.990027351E0
5.187795542E0,4.692909308E-3,1.807624102E-2,-1.993958354E0,1.994045810E0
5.197717542E0,2.574548824E-3,1.901237294E-2,-1.991926193E0,1.992018589E0
5.207640542E0,6.005499046E-3,2.085155249E-2,-1.994048953E0,1.994167014E0
5.217562542E0,3.624387551E-3,2.016058564E-2,-1.994596481E0,1.994701659E0
5.227485542E0,7.813007571E-3,2.127778158E-2,-1.992257953E0,1.992386894E0
5.237408542E0,6.558063906E-3,2.348729968E-2,-1.992598295E0,1.992747507E0
5.247330542E0,7.455815561E-3,2.443751693E-2,-1.990235806E0,1.990399795E0
5.257253542E0,1.169454399E-2,2.624818310E-2,-1.991725564E0,1.991932843E0
5.267175542E0,1.035550609E-2,2.292322740E-2,-1.990299463E0,1.990458406E0
5.277098542E0,1.579851657E-2,2.392935008E-2,-1.992406011E0,1.992612335E0
5.287020542E0,1.291058399E-2,1.844749972E-2,-1.989278674E0,1.989406102E0
5.296943542E0,1.554717496E-2,2.133634314E-2,-1.989964724E0,1.990139833E0
5.306866542E0,1.681430638E-2,1.527498756E-2,-1.989166021E0,1.989295731E0
5.316788542E0,1.767506078E-2,1.666794717E-2,-1.989865541E0,1.990013845E0
5.326711542E0,2.011478133E-2,1.175920945E-2,-1.988556027E0,1.988692525E0
5.336633542E0,2.047666721E-2,1.322928909E-2,-1.988472581E0,1.988622014E0
5.346556542E0,2.198614553E-2,8.844393305E-3,-1.991665483E0,1.991806469E0
5.356479542E0,2.503513731E-2,5.939573981E-3,-1.988210201E0,1.988376685E0
5.366401542E0,2.682611346E-2,2.432457171E-3,-1.988269925E0,1.988452376E0
5.376324542E0,2.735847980E-2,-5.862349644E-4,-1.988495708E0,1.988683989E0
5.386246542E0,3.083630092E-2,-3.554328345E-3,-1.989314437E0,1.989556594E0
5.396169542E0,2.990979701E-2,-8.359540254E-3,-1.989864111E0,1.990106444E0
5.406091542E0,3.454689682E-2,-1.025784202E-2,-1.987237930E0,1.987564666E0
5.416014542E0,3.028057143E-2,-1.295285113E-2,-1.989370584E0,1.989643187E0
5.425937542E0,2.909839340E-2,-1.746371388E-2,-1.986330867E0,1.986620751E0
5.435859542E0,2.493215352E-2,-1.565602981E-2,-1.987426519E0,1.987644559E0
5.445782542E0,2.547703683E-2,-1.827231981E-2,-1.986739635E0,1.986987000E0
5.455704542E0,2.096737362E-2,-1.910896599E-2,-1.985139132E0,1.985341823E0
5.465627542E0,1.648074575E-2,-1.822506264E-2,-1.987287164E0,1.987439065E0
5.475549542E0,1.367836352E-2,-2.219839022E-2,-1.987033367E0,1.987204435E0
5.485472542E0,9.672435932E-3,-2.499444410E-2,-1.986944437E0,1.987125178E0
5.495395542E0,9.965855628E-3,-2.494075522E-2,-1.985505223E0,1.985686871E0
5.505317542E0,4.231270403E-3,-2.496019751E-2,-1.985177398E0,1.985338816E0
5.515240542E0,3.152014222E-3,-2.413546480E-2,-1.986181736E0,1.986330875E0
5.525162542E0,-3.512546420E-3,-2.726174891E-2,-1.985878348E0,1.986068568E0
5.535085542E0,-3.194595687E-3,-2.817820013E-2,-1.985782027E0,1.985984511E0
5.545008542E0,-6.365621462E-3,-2.420343086E-2,-1.986754537E0,1.986912156E0
5.554930542E0,-8.669911884E-3,-2.491734177E-2,-1.985916615E0,1.986091851E0
5.564853542E0,-1.189446729E-2,-2.613733523E-2,-1.984194636E0,1.984402427E0
5.574775542E0,-1.429409813E-2,-2.560199611E-2,-1.984799504E0,1.985016084E0
5.584698542E0,-1.505389716E-2,-2.833919227E-2,-1.984443784E0,1.984703217E0
5.594620542E0,-2.007114142E-2,-2.212735638E-2,-1.984810352E0,1.985035165E0
5.604543542E0,-2.094306052E-2,-2.602462843E-2,-1.986371160E0,1.986652027E0
5.614466542E0,-2.010119148E-2,-2.149837092E-2,-1.982408047E0,1.982626516E0
5.624388542E0,-2.538916469E-2,-2.227361687E-2,-1.983418941E0,1.983706486E0
5.634311542E0,-2.080702223E-2,-2.536141500E-2,-1.985533118E0,1.985804093E0
5.644233542E0,-2.272290178E-2,-2.298401296E-2,-1.982090712E0,1.982354202E0
5.654156542E0,-2.006730810E-2,-2.106975950E-2,-1.981851935E0,1.982065520E0
5.664078542E0,-1.507468149E-2,-2.235020697E-2,-1.982072949E0,1.982256279E0
5.674001542E0,-1.904043742E-2,-2.176052518E-2,-1.980620384E0,1.980831433E0
5.683927500E0,-1.169437263E-2,-1.974264719E-2,-1.980758548E0,1.980891455E0
5.693849500E0,-2.188105509E-2,-1.796888746E-2,-1.983327985E0,1.983530075E0
5.703772500E0,-1.471875049E-2,-2.067199536E-2,-1.979770064E0,1.979932696E0
5.713694500E0,-8.784704842E-3,-1.812674478E-2,-1.981611848E0,1.981714224E0
5.723617500E0,-1.242018584E-2,-2.369248495E-2,-1.980800152E0,1.980980776E0
5.733540500E0,-7.434398867E-3,-2.123738080E-2,-1.980370402E0,1.980498227E0
5.743462500E0,-6.941714324E-3,-1.664049923E-2,-1.980218410E0,1.980300494E0
5.753385500E0,-1.199572580E-5,-2.204445004E-2,-1.980525851E0,1.980648532E0
5.763307500E0,-5.701040383E-3,-1.801482029E-2,-1.980915785E0,1.981005902E0
5.773230500E0,-2.045963891E-3,-2.076908946E-2,-1.980960608E0,1.981070536E0
5.783152500E0,-4.104054999E-3,-1.866758801E-2,-1.977700591E0,1.977792949E0
5.793075500E0,-2.864875831E-3,-1.555948239E-2,-1.979801536E0,1.979864749E0
5.802998500E0,4.027651623E-3,-1.924875937E-2,-1.979262233E0,1.979359928E0
5.812920500E0,-2.205395605E-3,-1.263296418E-2,-1.978499174E0,1.978540734E0
5.822843500E0,8.241918869E-3,-1.621624827E-2,-1.977569222E0,1.977652883E0
5.832765500E0,4.569686484E-3,-1.890843734E-2,-1.979111195E0,1.979206794E0
5.842688500E0,1.049442124E-2,-1.407639775E-2,-1.979007602E0,1.979085487E0
5.852610500E0,7.967132144E-3,-1.359075401E-2,-1.977747440E0,1.977810183E0
5.862533500E0,1.081351936E-2,-1.076886896E-2,-1.978565335E0,1.978624190E0
5.872456500E0,1.093817409E-2,-1.578184403E-2,-1.976912141E0,1.977005393E0
5.882378500E0,1.243380550E-2,-1.783300936E-2,-1.977687120E0,1.977806604E0
5.892301500E0,1.456333138E-2,-1.441290602E-2,-1.978646874E0,1.978752960E0
5.902223500E0,1.583126374E-2,-1.429013442E-2,-1.977662802E0,1.977777792E0
5.912146500E0,1.356959250E-2,-1.261765789E-2,-1.978102088E0,1.978188871E0
5.922068500E0,1.484205108E-2,-1.431435812E-2,-1.974453568E0,1.974561238E0
5.931991500E0,1.776205376E-2,-1.048101485E-2,-1.975114703E0,1.975222376E0
5.941914500E0,1.402963419E-2,-7.580566220E-3,-1.975290179E0,1.975354547E0
5.951836500E0,1.502903644E-2,-9.264182299E-3,-1.974898934E0,1.974977847E0
5.961759500E0,1.222952176E-2,-5.332292058E-3,-1.975836873E0,1.975881915E0
5.971681500E0,1.276871935E-2,-5.270374939E-3,-1.977778196E0,1.977826436E0
5.981604500E0,1.592509821E-2,-5.610726774E-3,-1.975648046E0,1.975720195E0
5.991526500E0,1.153640356E-2,-4.930329509E-3,-1.975027561E0,1.975067408E0
6.001449500E0,1.299261954E-2,-9.257346392E-4,-1.976617813E0,1.976660731E0
6.011372500E0,8.250768296E-3,-4.243360832E-3,-1.974478602E0,1.974500401E0
6.021294500E0,7.245957851E-3,-2.820434049E-3,-1.973881245E0,1.973896559E0
6.031217500E0,9.751142934E-3,-3.061664291E-3,-1.972864389E0,1.972890863E0
6.041139500E0,1.771779498E-3,-3.699224442E-3,-1.972012162E0,1.972016428E0
6.051062500E0,3.372124396E-3,2.728492953E-3,-1.973904490E0,1.973909257E0
6.060984500E0,1.422428177E-4,4.800965078E-3,-1.974779129E0,1.974784970E0
6.070907500E0,2.064602217E-3,-1.038606279E-3,-1.975367069E0,1.975368421E0
6.080830500E0,6.467353087E-4,3.810211085E-3,-1.973299384E0,1.973303169E0
6.090752500E0,-2.801656723E-3,-2.754938789E-3,-1.971420884E0,1.971424800E0
6.100675500E0,-2.797662048E-3,-2.225502394E-3,-1.971686125E0,1.971689366E0
6.110597500E0,-7.286788896E-3,2.157197334E-3,-1.971218467E0,1.971233115E0
6.120520500E0,-4.763443489E-3,-3.092426807E-3,-1.973606825E0,1.973614996E0
6.130443500E0,-8.027383126E-3,1.840599813E-3,-1.973145366E0,1.973162553E0
6.140365500E0,-7.436160930E-3,1.170548610E-3,-1.970188022E0,1.970202403E0
6.150288500E0,-7.644686848E-3,4.156219773E-3,-1.971241832E0,1.971261037E0
6.160210500E0,-5.536261946E-3,4.883262329E-3,-1.972106814E0,1.972120631E0
6.170133500E0,-1.743428875E-3,-7.069641724E-4,-1.971241593E0,1.971242491E0
6.180055500E0,-3.976755776E-3,1.872307621E-3,-1.968679190E0,1.968684097E0
6.189978500E0,-2.051721094E-3,2.581869252E-3,-1.970216513E0,1.970219273E0
6.199901500E0,-6.473101210E-3,8.329721168E-4,-1.971854568E0,1.971865368E0
6.209823500E0,-3.733804217E-3,2.269159071E-3,-1.969794631E0,1.969799477E0
6.219746500E0,-2.664012136E-3,3.306194209E-3,-1.968101144E0,1.968105724E0
6.229668500E0,-2.456992166E-3,2.443996258E-3,-1.969230652E0,1.969233701E0
6.239591500E0,-2.347270027E-3,2.993940376E-3,-1.968374252E0,1.968377929E0
6.249513500E0,-3.462919733E-3,3.159143962E-3,-1.969751358E0,1.969756935E0
6.259436500E0,-2.774492372E-3,2.682703547E-3,-1.966716886E0,1.966720672E0
6.269359500E0,-2.173867309E-3,3.525824286E-3,-1.967973709E0,1.967978068E0
6.279281500E0,-2.507561352E-3,3.920505755E-3,-1.966537952E0,1.966543459E0
6.289204500E0,-1.517666038E-3,6.383704953E-3,-1.970409036E0,1.970419961E0
6.299126500E0,-4.808800761E-3,5.651070736E-3,-1.965848327E0,1.965862331E0
6.309049500E0,-4.119823570E-4,3.577684052E-3,-1.967781067E0,1.967784362E0
6.318971500E0,-1.672456507E-3,3.822960891E-3,-1.969166875E0,1.969171296E0
6.328894500E0,4.325464834E-4,4.302582704E-3,-1.966456652E0,1.966461406E0
6.338817500E0,1.404067734E-3,4.536141641E-3,-1.966803670E0,1.966809402E0
6.348739500E0,-3.188081551E-3,6.180531345E-3,-1.967311025E0,1.967323316E0
6.358662500E0,-2.903655870E-3,5.592505448E-3,-1.967510700E0,1.967520791E0
6.368584500E0,-3.626532271E-4,5.306190811E-3,-1.966265917E0,1.966273110E0
6.378507500E0,3.632354783E-3,9.275899269E-3,-1.967975736E0,1.968000948E0
6.388429500E0,2.878147410E-3,6.432707421E-3,-1.966896296E0,1.966908920E0
6.398352500E0,3.985756077E-3,7.897180505E-3,-1.967807651E0,1.967827533E0
6.408275500E0,-1.217895420E-3,9.271268733E-3,-1.966237664E0,1.966259899E0
6.418197500E0,8.342320099E-3,1.341488119E-2,-1.964287758E0,1.964351279E0
6.428120500E0,2.562431153E-3,6.893278100E-3,-1.965620875E0,1.965634633E0
6.438042500E0,8.859209716E-3,1.107790414E-2,-1.966931701E0,1.966982847E0
6.447965500E0,6.775049958E-3,1.149740536E-2,-1.964900255E0,1.964945573E0
6.457887500E0,4.974486772E-3,1.246439945E-2,-1.963868260E0,1.963914115E0
6.467810500E0,5.592073780E-3,1.511291321E-2,-1.965960264E0,1.966026305E0
6.477733500E0,7.710352074E-3,9.980202653E-3,-1.963639259E0,1.963679759E0
6.487655500E0,8.770105429E-3,1.447745692E-2,-1.963148475E0,1.963221446E0
6.497578500E0,1.026760042E-2,1.223720517E-2,-1.963142276E0,1.963207266E0
6.507500500E0,6.118590944E-3,1.621485874E-2,-1.963750005E0,1.963826479E0
6.517423500E0,1.109204348E-2,1.634242386E-2,-1.961000085E0,1.961099549E0
6.527345500E0,7.914135233E-3,1.434184331E-2,-1.963606000E0,1.963674323E0
6.537268500E0,1.368413959E-2,1.466461923E-2,-1.961476207E0,1.961578756E0
6.547191500E0,1.253186259E-2,1.707291976E-2,-1.963414907E0,1.963529127E0
6.557113500E0,1.132864598E-2,1.265979465E-2,-1.962005496E0,1.962079044E0
6.567036500E0,1.192407683E-2,1.553586591E-2,-1.962136984E0,1.962234718E0
6.576958500E0,7.312812842E-3,1.443278324E-2,-1.961035013E0,1.961101758E0
6.586881500E0,8.663713001E-3,1.168018114E-2,-1.961563349E0,1.961617256E0
6.596803500E0,8.668506518E-3,1.296542305E-2,-1.961089611E0,1.961151628E0
6.606726500E0,1.033515390E-2,1.229003351E-2,-1.962338567E0,1.962404268E0
6.616649500E0,6.375565194E-3,1.203356963E-2,-1.960762501E0,1.960809792E0
6.626571500E0,7.728728000E-3,1.118262019E-2,-1.959976912E0,1.960024050E0
6.636494500E0,5.968644749E-3,9.770612232E-3,-1.961829424E0,1.961862834E0
6.646416500E0,4.539173096E-3,1.204494108E-2,-1.959196687E0,1.959238970E0
6.656339500E0,7.371977437E-3,8.449408226E-3,-1.958769321E0,1.958801417E0
6.666261500E0,4.317710642E-3,7.832110859E-3,-1.961455226E0,1.961475615E0
6.676184500E0,6.520677358E-3,8.066202514E-3,-1.959095359E0,1.959122816E0
6.686104792E0,4.322504159E-3,2.243733965E-3,-1.958859682E0,1.958865736E0
6.696026792E0,9.144423530E-3,1.502043568E-3,-1.959573984E0,1.959595896E0
6.705949792E0,3.537094221E-3,-3.244178370E-3,-1.958469391E0,1.958475272E0
6.715871792E0,7.658336312E-3,-6.112403236E-3,-1.958292603E0,1.958317117E0
6.725794792E0,1.047179382E-2,-8.982907049E-3,-1.960113525E0,1.960162081E0
6.735716792E0,7.372140884E-3,-1.073313691E-2,-1.957870364E0,1.957913663E0
6.745639792E0,9.347970597E-3,-1.472249348E-2,-1.957545161E0,1.957622843E0
6.755562792E0,7.174031809E-3,-1.537310425E-2,-1.957525730E0,1.957599240E0
6.765484792E0,9.772611782E-3,-1.692002267E-2,-1.958255291E0,1.958352771E0
6.775407792E0,7.496142294E-3,-2.181810886E-2,-1.959195614E0,1.959331436E0
6.785329792E0,8.745020255E-3,-2.349754050E-2,-1.955531240E0,1.955691959E0
6.795252792E0,8.591355756E-3,-2.775859833E-2,-1.956071615E0,1.956287432E0
6.805174792E0,1.011155080E-2,-2.801232040E-2,-1.956762075E0,1.956988695E0
6.815097792E0,1.189000998E-2,-2.645996399E-2,-1.959508061E0,1.959722772E0
6.825020792E0,3.896118375E-3,-3.036415577E-2,-1.956464291E0,1.956703780E0
6.834942792E0,9.113783017E-3,-2.782429755E-2,-1.956200123E0,1.956419222E0
6.844865792E0,5.882368423E-3,-3.114440292E-2,-1.956074595E0,1.956331362E0
6.854787792E0,5.603535566E-3,-3.357320279E-2,-1.956447959E0,1.956744024E0
6.864710792E0,3.814116819E-3,-2.845858783E-2,-1.955441475E0,1.955652270E0
6.874632792E0,4.486831371E-3,-3.167062625E-2,-1.955425024E0,1.955686627E0
6.884555792E0,5.153356586E-3,-2.970927209E-2,-1.952902675E0,1.953135442E0
6.894478792E0,2.194584580E-3,-2.758939564E-2,-1.953843117E0,1.954039129E0
6.904400792E0,2.600544831E-3,-2.979304269E-2,-1.954721451E0,1.954950214E0
6.914323792E0,2.617322840E-3,-3.048706241E-2,-1.954644680E0,1.954884175E0
6.924245792E0,3.217660356E-3,-2.934658341E-2,-1.952738166E0,1.952961321E0
6.934168792E0,2.502601361E-3,-3.144994751E-2,-1.953799963E0,1.954054671E0
6.944090792E0,2.168171108E-3,-3.160460666E-2,-1.954861283E0,1.955117948E0
6.954013792E0,4.298433661E-3,-3.088688292E-2,-1.953645587E0,1.953894459E0
6.963936792E0,2.049270552E-3,-2.699885517E-2,-1.951579094E0,1.951766917E0
6.973858792E0,-5.419852096E-4,-3.052434698E-2,-1.953035951E0,1.953274547E0
6.983781792E0,1.942558913E-3,-3.023861721E-2,-1.954756021E0,1.954990857E0
6.993703792E0,-6.753284833E-4,-2.670859545E-2,-1.952855349E0,1.953038099E0
7.003626792E0,-1.346034231E-3,-2.872510068E-2,-1.952781558E0,1.952993281E0
7.013548792E0,-2.060826635E-3,-3.120024130E-2,-1.953388810E0,1.953639052E0
7.023471792E0,-6.028774660E-3,-2.464199625E-2,-1.955731750E0,1.955896278E0
7.033394792E0,-7.647703751E-4,-2.997391112E-2,-1.952373266E0,1.952603490E0
7.043316792E0,-4.733156879E-3,-2.549174055E-2,-1.952420473E0,1.952592619E0
7.053239792E0,-5.421584006E-3,-2.524459735E-2,-1.953333139E0,1.953503785E0
7.063161792E0,-4.826304037E-3,-2.678383887E-2,-1.951173186E0,1.951362978E0
7.073084792E0,-7.541396655E-3,-2.422640473E-2,-1.951015949E0,1.951180931E0
7.083006792E0,-5.792994518E-3,-2.113497071E-2,-1.954495192E0,1.954618044E0
7.092929792E0,-1.263332367E-2,-2.578644827E-2,-1.951463938E0,1.951675189E0
7.102852792E0,-6.423586514E-3,-2.492498048E-2,-1.953434348E0,1.953603918E0
7.112774792E0,-1.171235740E-2,-2.135421336E-2,-1.950849175E0,1.951001201E0
7.122697792E0,-8.094648831E-3,-1.751069725E-2,-1.951149344E0,1.951244708E0
7.132619792E0,-8.741796948E-3,-2.001486719E-2,-1.951303482E0,1.951425708E0
7.142542792E0,-3.664123360E-3,-1.910256222E-2,-1.950742602E0,1.950839572E0
7.152464792E0,-9.404568002E-3,-1.532060653E-2,-1.949723721E0,1.949806594E0
7.162387792E0,-6.800734438E-3,-1.750321686E-2,-1.950807452E0,1.950897826E0
7.172310792E0,-4.027318675E-3,-1.609387249E-2,-1.949242115E0,1.949312713E0
7.182232792E0,-5.012674257E-3,-1.648228243E-2,-1.950754881E0,1.950830951E0
7.192155792E0,-3.690947546E-3,-1.466068067E-2,-1.949550867E0,1.949609484E0
7.202077792E0,-5.760624539E-3,-1.434653718E-2,-1.950580239E0,1.950641504E0
7.212000792E0,-2.934477758E-3,-1.264024992E-2,-1.950715184E0,1.950758344E0
7.221922792E0,-4.399655387E-3,-1.277621277E-2,-1.950531363E0,1.950578168E0
7.231845792E0,3.719523549E-3,-9.624894708E-3,-1.950201392E0,1.950228690E0
7.241768792E0,-1.428719261E-4,-5.875579081E-3,-1.951417804E0,1.951426654E0
7.251690792E0,6.215158850E-3,-5.475838669E-3,-1.949806809E0,1.949824404E0
7.261613792E0,6.458635908E-3,-2.754288726E-3,-1.949977517E0,1.949990158E0
7.271535792E0,9.686120786E-3,1.060157083E-3,-1.950507164E0,1.950531502E0
7.281458792E0,1.431167126E-2,1.500314102E-4,-1.947470665E0,1.947523257E0
7.291380792E0,1.459157001E-2,2.939959057E-3,-1.948126316E0,1.948183179E0
7.301303792E0,1.878768578E-2,3.728243522E-3,-1.952121496E0,1.952215463E0
7.311226792E0,1.804865897E-2,5.702977069E-3,-1.947958231E0,1.948050191E0
7.321148792E0,1.961029507E-2,1.115554478E-2,-1.948094130E0,1.948224768E0
7.331071792E0,2.356588840E-2,9.119025432E-3,-1.947504282E0,1.947668205E0
7.340993792E0,1.966270991E-2,1.405128185E-2,-1.947559118E0,1.947709059E0
7.350916792E0,2.362895571E-2,1.162594091E-2,-1.946771622E0,1.946949726E0
7.360838792E0,1.847328246E-2,1.378618088E-2,-1.949781299E0,1.949917545E0
7.370761792E0,2.226003073E-2,1.599048078E-2,-1.947114587E0,1.947307479E0
7.380683792E0,2.206086554E-2,1.440269034E-2,-1.949946046E0,1.950124022E0
7.390606792E0,1.839582436E-2,1.443278324E-2,-1.948010206E0,1.948150527E0
7.400529792E0,1.942075230E-2,1.827390492E-2,-1.947015285E0,1.947197890E0
7.410451792E0,2.060426213E-2,1.386690419E-2,-1.949808717E0,1.949966887E0
7.420374792E0,1.853904128E-2,1.438899431E-2,-1.948123932E0,1.948265278E0
7.430296792E0,2.124321647E-2,1.582523808E-2,-1.948610783E0,1.948790829E0
7.440219792E0,1.759207249E-2,1.214306895E-2,-1.947971940E0,1.948089221E0
7.450141792E0,1.774147525E-2,1.005355362E-2,-1.948130608E0,1.948237331E0
7.460064792E0,1.091287471E-2,1.169159170E-2,-1.946628332E0,1.946694030E0
7.469987792E0,1.152220555E-2,7.325871848E-3,-1.947411537E0,1.947459403E0
7.479909792E0,9.435086511E-3,7.959173061E-3,-1.944957137E0,1.944996307E0
7.489832792E0,5.315974820E-3,3.533265553E-3,-1.946247816E0,1.946258283E0
7.499754792E0,2.972578164E-3,4.729318433E-3,-1.947411299E0,1.947419310E0
7.509677792E0,3.372584935E-3,1.776671968E-3,-1.948679209E0,1.948682937E0
7.519599792E0,-4.759630538E-4,1.341902651E-3,-1.946036220E0,1.946036740E0
7.529522792E0,-2.202756703E-3,2.540857531E-3,-1.947515249E0,1.947518152E0
7.539445792E0,-1.848862506E-3,-1.876252703E-3,-1.948043942E0,1.948045723E0
7.549367792E0,-7.066527847E-3,-3.516759723E-3,-1.944189072E0,1.944205095E0
7.559290792E0,-3.915033769E-3,-7.740439847E-3,-1.945506334E0,1.945525672E0
7.569212792E0,-9.622188285E-3,-7.789974567E-3,-1.946960926E0,1.947000287E0
7.579135792E0,-2.441833494E-3,-1.117896289E-2,-1.945869803E0,1.945903447E0
7.589057792E0,-9.228101000E-3,-1.626213826E-2,-1.944396853E0,1.944486755E0
7.598980792E0,-6.365131587E-3,-1.448842790E-2,-1.944895387E0,1.944959767E0
7.608903792E0,-1.302196924E-2,-1.951141655E-2,-1.945325494E0,1.945466922E0
7.618825792E0,-1.415023580E-2,-2.255569026E-2,-1.943252802E0,1.943435216E0
7.628748792E0,-1.588714868E-2,-2.042409591E-2,-1.946650743E0,1.946822710E0
7.638670792E0,-1.563069783E-2,-2.485366352E-2,-1.947106600E0,1.947327947E0
7.648593792E0,-2.347823419E-2,-2.095479518E-2,-1.943385720E0,1.943640499E0
7.658515792E0,-1.490596030E-2,-2.108965069E-2,-1.943161130E0,1.943332740E0
7.668438792E0,-1.968313754E-2,-2.377624810E-2,-1.942855120E0,1.943100294E0
7.678360792E0,-1.660931669E-2,-2.330007404E-2,-1.942500949E0,1.942711687E0
7.688287292E0,-1.818995550E-2,-2.065680176E-2,-1.944451451E0,1.944646247E0
7.698210292E0,-1.351713203E-2,-1.989568397E-2,-1.943214893E0,1.943363752E0
7.708132292E0,-1.257703546E-2,-1.677525789E-2,-1.942936063E0,1.943049185E0
7.718055292E0,-8.419154212E-3,-1.378535479E-2,-1.945068121E0,1.945135192E0
7.727977292E0,-5.747471005E-3,-1.443383470E-2,-1.946406126E0,1.946468129E0
7.737900292E0,-4.953430500E-3,-1.175547950E-2,-1.941959858E0,1.942001755E0
7.747822292E0,-2.490006620E-3,-7.605475374E-3,-1.942197680E0,1.942214168E0
7.757745292E0,-1.783540705E-3,-7.645200938E-3,-1.942998409E0,1.943014269E0
7.767668292E0,1.780301449E-3,-2.130060457E-3,-1.941947579E0,1.941949564E0
7.777590292E0,5.418290850E-3,-2.314053476E-3,-1.943291068E0,1.943299999E0
7.787513292E0,7.251610979E-3,-1.625093631E-3,-1.945595264E0,1.945609457E0
7.797435292E0,6.062715314E-3,2.832391299E-3,-1.943646073E0,1.943657593E0
7.807358292E0,1.120261569E-2,5.505939014E-3,-1.943536639E0,1.943576724E0
7.817280292E0,1.104143448E-2,5.854965188E-3,-1.942421079E0,1.942461284E0
7.827203292E0,1.904902607E-2,7.188943215E-3,-1.942019463E0,1.942126190E0
7.837126292E0,1.443705522E-2,9.340948425E-3,-1.941450357E0,1.941526506E0
7.847048292E0,2.090560645E-2,1.491600927E-2,-1.941721678E0,1.941891502E0
7.856971292E0,1.936104521E-2,1.200122666E-2,-1.944359541E0,1.944492968E0
7.866893292E0,2.507352456E-2,1.054740790E-2,-1.941608310E0,1.941798846E0
7.876816292E0,2.405220270E-2,1.238818374E-2,-1.942265034E0,1.942453458E0
7.886738292E0,2.746850625E-2,1.066751499E-2,-1.941221833E0,1.941445472E0
7.896661292E0,2.897378430E-2,1.038214099E-2,-1.942873955E0,1.943117720E0
7.906584292E0,2.723553777E-2,1.021968666E-2,-1.941477895E0,1.941695814E0
7.916506292E0,2.637678385E-2,4.620366730E-3,-1.942404866E0,1.942589444E0
7.926429292E0,3.212042525E-2,6.540239789E-3,-1.943210959E0,1.943487414E0
7.936351292E0,2.854629606E-2,2.895009704E-3,-1.940337896E0,1.940550031E0
7.946274292E0,2.966908552E-2,-5.276855081E-4,-1.939293981E0,1.939520991E0
7.956196292E0,3.097474389E-2,8.900081739E-4,-1.941172004E0,1.941419320E0
7.966119292E0,2.858988196E-2,-2.414441667E-3,-1.939455390E0,1.939667606E0
7.976042292E0,2.257464267E-2,-4.690965638E-3,-1.939315438E0,1.939452497E0
7.985964292E0,2.353764325E-2,-3.635288216E-3,-1.941606045E0,1.941752113E0
7.995887292E0,2.348788828E-2,-1.207115687E-2,-1.939756274E0,1.939936029E0
8.005809292E0,2.116401307E-2,-1.142906863E-2,-1.938326240E0,1.938475471E0
8.015732292E0,1.732673869E-2,-1.192975044E-2,-1.939720392E0,1.939834461E0
8.025654292E0,1.777388342E-2,-1.459051482E-2,-1.940126538E0,1.940262812E0
8.035577292E0,1.608798839E-2,-1.370206568E-2,-1.939027905E0,1.939143055E0
8.045499292E0,1.474042982E-2,-1.816658862E-2,-1.938160062E0,1.938301249E0
8.055422292E0,1.342688780E-2,-2.250811830E-2,-1.937695265E0,1.937872503E0
8.065345292E0,7.855821401E-3,-1.907024346E-2,-1.938656688E0,1.938766397E0
8.075267292E0,8.192731999E-3,-1.919741556E-2,-1.939631104E0,1.939743406E0
8.085190292E0,3.606768092E-3,-1.978810504E-2,-1.937919259E0,1.938023641E0
8.095112292E0,1.118350890E-3,-2.145978436E-2,-1.934453368E0,1.934572719E0
8.105035292E0,-9.525165660E-5,-2.505771443E-2,-1.940790653E0,1.940952410E0
8.114957292E0,-5.817831960E-3,-1.565210149E-2,-1.936869144E0,1.936941124E0
8.124880292E0,-6.854867097E-3,-1.797597483E-2,-1.936746955E0,1.936842506E0
8.134803292E0,-8.389329538E-3,-1.648441888E-2,-1.939348459E0,1.939436661E0
8.144725292E0,-1.539903600E-2,-1.724288799E-2,-1.936603308E0,1.936741289E0
8.154648292E0,-1.073631365E-2,-1.715461910E-2,-1.939088821E0,1.939194422E0
8.164570292E0,-1.962754317E-2,-1.806169190E-2,-1.935562491E0,1.935746270E0
8.174493292E0,-1.764592528E-2,-1.549625956E-2,-1.938653588E0,1.938795824E0
8.184415292E0,-2.229980007E-2,-1.558201388E-2,-1.937786818E0,1.937977768E0
8.194338292E0,-2.799745649E-2,-1.539363619E-2,-1.937648892E0,1.937912292E0
8.204261292E0,-2.711967938E-2,-1.755026355E-2,-1.937817216E0,1.938086441E0
8.214183292E0,-3.449467942E-2,-1.628775150E-2,-1.936434746E0,1.936810445E0
8.224106292E0,-3.203951195E-2,-9.289496578E-3,-1.936701536E0,1.936988814E0
8.234028292E0,-3.252268955E-2,-1.251216512E-2,-1.934156179E0,1.934470058E0
8.243951292E0,-3.535842523E-2,-1.217980310E-2,-1.935677648E0,1.936038874E0
8.253873292E0,-3.489617258E-2,-1.084527187E-2,-1.936385393E0,1.936730171E0
8.263796292E0,-3.625917807E-2,-9.342184290E-3,-1.935603499E0,1.935965628E0
8.273718292E0,-3.769355640E-2,-6.153380498E-3,-1.935359716E0,1.935736527E0
8.283641292E0,-3.544478118E-2,-5.748579279E-3,-1.933032870E0,1.933366353E0
8.293564292E0,-3.358302638E-2,-5.435772240E-3,-1.935912251E0,1.936211149E0
8.303486292E0,-3.129244223E-2,-1.591232605E-3,-1.935361266E0,1.935614884E0
8.313409292E0,-2.944635041E-2,-9.647309780E-4,-1.933371544E0,1.933596014E0
8.323331292E0,-2.714831010E-2,4.065181129E-3,-1.935113549E0,1.935308245E0
8.333254292E0,-2.704844810E-2,9.841658175E-5,-1.935036659E0,1.935225698E0
8.343176292E0,-2.380605042E-2,4.855354317E-3,-1.933966875E0,1.934119483E0
8.353099292E0,-1.705469005E-2,6.714115851E-3,-1.934057355E0,1.934144202E0
8.363022292E0,-1.872475818E-2,3.297547810E-3,-1.932904005E0,1.932997512E0
8.372944292E0,-1.634219848E-2,7.296181284E-3,-1.932046294E0,1.932129184E0
8.382867292E0,-5.063444842E-3,3.097706474E-3,-1.936101794E0,1.936110894E0
8.392789292E0,-9.822241962E-3,2.894709818E-3,-1.934215069E0,1.934242174E0
8.402712292E0,-5.341739394E-3,3.628675826E-3,-1.932008386E0,1.932019178E0
8.412634292E0,-1.698590349E-3,-1.842910424E-3,-1.932409286E0,1.932410912E0
8.422557292E0,1.101190806E-3,1.010400243E-3,-1.936114073E0,1.936114650E0
8.432479292E0,6.043671165E-3,-4.736150615E-3,-1.929442048E0,1.929457326E0
8.442402292E0,7.088162936E-3,-8.380813524E-4,-1.932341695E0,1.932354877E0
8.452325292E0,1.237386372E-2,1.754413359E-3,-1.930930018E0,1.930970462E0
8.462247292E0,1.157278568E-2,3.685047850E-4,-1.930751324E0,1.930786042E0
8.472170292E0,2.094244957E-2,6.813211367E-4,-1.931223392E0,1.931337061E0
8.482092292E0,1.957145520E-2,-2.004513517E-4,-1.931846857E0,1.931946004E0
8.492015292E0,2.319627255E-2,-2.266462892E-3,-1.928733230E0,1.928874043E0
8.501937292E0,2.548499219E-2,-1.409724355E-3,-1.932083488E0,1.932252073E0
8.511860292E0,2.488102764E-2,-1.952754334E-3,-1.930177093E0,1.930338439E0
8.521783292E0,2.695137076E-2,-1.480842009E-3,-1.931179523E0,1.931368147E0
8.531705292E0,2.806612849E-2,-5.330696702E-3,-1.930207491E0,1.930418888E0
8.541628292E0,2.903924696E-2,-5.337353796E-3,-1.929534554E0,1.929760442E0
8.551550292E0,3.608814254E-2,-3.339994699E-3,-1.930080891E0,1.930421134E0
8.561473292E0,3.146889061E-2,-5.194405094E-4,-1.928357601E0,1.928614425E0
8.571395292E0,3.929658234E-2,-3.082029521E-3,-1.930351734E0,1.930754137E0
8.581318292E0,3.924971074E-2,-2.461512573E-3,-1.928211927E0,1.928612931E0
8.591241292E0,4.056944326E-2,2.189527266E-3,-1.927345276E0,1.927773453E0
8.601163292E0,3.746153414E-2,-9.071966633E-4,-1.929662824E0,1.930026633E0
8.611086292E0,3.739438206E-2,4.307860509E-4,-1.928009152E0,1.928371805E0
8.621008292E0,3.312852979E-2,-1.707731746E-3,-1.927014112E0,1.927299615E0
8.630931292E0,3.382175043E-2,2.329135314E-4,-1.929271698E0,1.929568151E0
8.640853292E0,2.929597534E-2,1.003897749E-3,-1.927301764E0,1.927524670E0
8.650776292E0,3.145471588E-2,6.034979597E-4,-1.926023483E0,1.926280411E0
8.660698292E0,2.826451510E-2,-3.841050901E-3,-1.927214622E0,1.927425702E0
8.670621292E0,2.668071352E-2,-2.641159110E-3,-1.929579020E0,1.929765278E0
8.680544292E0,2.270621061E-2,-2.820922062E-3,-1.925997615E0,1.926133521E0
8.690461625E0,2.029523998E-2,-6.616656668E-3,-1.928736687E0,1.928854811E0
8.700384625E0,1.865606382E-2,-1.524692401E-3,-1.928571820E0,1.928662656E0
8.710306625E0,1.411145180E-2,-4.780624993E-3,-1.925443769E0,1.925501413E0
8.720229625E0,1.355192158E-2,-1.789628528E-3,-1.927169561E0,1.927218041E0
8.730151625E0,1.108651236E-2,-2.092663199E-3,-1.926018596E0,1.926051640E0
8.740074625E0,7.697106805E-3,-4.842909053E-3,-1.925377607E0,1.925399083E0
8.749997625E0,7.321218727E-4,-3.657130525E-3,-1.926431656E0,1.926435266E0
8.759919625E0,-8.982653380E-4,-3.223301843E-3,-1.925679088E0,1.925681995E0
8.769842625E0,-7.114937529E-3,-4.621585831E-3,-1.925225496E0,1.925244190E0
8.779764625E0,-1.306763478E-2,-1.026375964E-2,-1.924046516E0,1.924118267E0
8.789687625E0,-1.369034220E-2,-7.995663211E-3,-1.924383402E0,1.924448709E0
8.799609625E0,-2.159034275E-2,-1.078665629E-2,-1.922855973E0,1.923007433E0
8.809532625E0,-2.099005692E-2,-1.243042853E-2,-1.922917604E0,1.923072337E0
8.819454625E0,-2.219353989E-2,-7.196518593E-3,-1.923668504E0,1.923809984E0
8.829377625E0,-2.390507236E-2,-1.283045392E-2,-1.923228621E0,1.923419976E0
8.839300625E0,-2.600098029E-2,-1.164721139E-2,-1.927039862E0,1.927250460E0
8.849222625E0,-2.629401721E-2,-1.183221396E-2,-1.923474431E0,1.923690532E0
8.859145625E0,-2.882481925E-2,-1.432519872E-2,-1.923663020E0,1.923932300E0
8.869067625E0,-2.907756530E-2,-1.665832289E-2,-1.920926571E0,1.921218857E0
8.878990625E0,-2.678218670E-2,-1.660878956E-2,-1.922420382E0,1.922678669E0
8.888912625E0,-2.753127180E-2,-1.674502529E-2,-1.923079252E0,1.923349208E0
8.898835625E0,-2.430005930E-2,-1.655434258E-2,-1.921259761E0,1.921484740E0
8.908758625E0,-1.961951330E-2,-1.906198449E-2,-1.919313550E0,1.919508476E0
8.918680625E0,-1.634249464E-2,-2.019143105E-2,-1.920145988E0,1.920321689E0
8.928603625E0,-1.453499682E-2,-2.357584238E-2,-1.919827461E0,1.920027231E0
8.938525625E0,-1.022067573E-2,-2.111295238E-2,-1.919283628E0,1.919426963E0
8.948448625E0,-4.702459555E-3,-2.158457041E-2,-1.920263767E0,1.920390831E0
8.958370625E0,-2.473926637E-3,-2.105939388E-2,-1.920544386E0,1.920661437E0
8.968293625E0,-1.587805455E-4,-2.344759926E-2,-1.921313047E0,1.921456125E0
8.978215625E0,1.754700672E-3,-2.534483559E-2,-1.919265270E0,1.919433410E0
8.988138625E0,9.062740952E-3,-2.495882288E-2,-1.919982791E0,1.920166397E0
8.998061625E0,1.083693933E-2,-2.158220112E-2,-1.920230389E0,1.920382247E0
9.007983625E0,1.538705546E-2,-2.638277598E-2,-1.916887522E0,1.917130821E0
9.017906625E0,2.020897344E-2,-2.402907424E-2,-1.918219090E0,1.918476029E0
9.027828625E0,2.391340211E-2,-2.772320248E-2,-1.916090965E0,1.916440715E0
9.037751625E0,2.151282877E-2,-2.522169426E-2,-1.919752240E0,1.920038437E0
9.047673625E0,2.278350294E-2,-2.317135036E-2,-1.920826674E0,1.921101535E0
9.057596625E0,2.632630616E-2,-2.804733068E-2,-1.920788646E0,1.921173795E0
9.067519625E0,2.537494525E-2,-1.966181397E-2,-1.916042447E0,1.916311335E0
9.077441625E0,2.372298576E-2,-2.391088754E-2,-1.917142391E0,1.917438254E0
9.087364625E0,2.547370642E-2,-2.100989595E-2,-1.915977478E0,1.916261992E0
9.097286625E0,2.706441283E-2,-1.931133121E-2,-1.917755127E0,1.918043309E0
9.107209625E0,2.872216515E-2,-1.641785912E-2,-1.915765643E0,1.916051280E0
9.117131625E0,2.778899297E-2,-1.883787289E-2,-1.916305423E0,1.916599480E0
9.127054625E0,2.775056474E-2,-1.766233519E-2,-1.917336345E0,1.917618500E0
9.136976625E0,2.458379976E-2,-1.274267770E-2,-1.914401770E0,1.914602015E0
9.146899625E0,2.508069575E-2,-1.388136484E-2,-1.916656017E0,1.916870372E0
9.156822625E0,2.194002829E-2,-8.730811998E-3,-1.916895151E0,1.917040587E0
9.166744625E0,1.775780134E-2,-9.134014137E-3,-1.914723158E0,1.914827288E0
9.176667625E0,1.563952304E-2,-5.396001041E-3,-1.913558841E0,1.913630358E0
9.186589625E0,1.000639517E-2,-4.130132496E-3,-1.912944913E0,1.912975542E0
9.196512625E0,9.511846118E-3,-5.098723806E-3,-1.914556980E0,1.914587397E0
9.206434625E0,7.185724564E-3,1.818067394E-3,-1.914295316E0,1.914309666E0
9.216357625E0,4.599262960E-3,-1.008877531E-3,-1.916645765E0,1.916651549E0
9.226279625E0,2.640081104E-3,-9.326720610E-4,-1.915852308E0,1.915854354E0
9.236202625E0,-1.354653505E-4,3.242631443E-3,-1.914857030E0,1.914859780E0
9.246125625E0,-4.315985367E-3,-5.006678402E-4,-1.912194014E0,1.912198950E0
9.256047625E0,-2.647514455E-3,3.997943364E-3,-1.911718965E0,1.911724978E0
9.265970625E0,-7.548826281E-3,2.137930132E-3,-1.912420154E0,1.912436247E0
9.275892625E0,-5.215364508E-3,6.150248460E-3,-1.910453200E0,1.910470219E0
9.285815625E0,-1.044163853E-2,8.302976377E-3,-1.909717321E0,1.909763916E0
9.295737625E0,-7.246644236E-3,6.504810415E-3,-1.910597801E0,1.910622617E0
9.305660625E0,-1.312339585E-2,1.074820850E-2,-1.910644770E0,1.910720069E0
9.315583625E0,-1.420437265E-2,7.438699715E-3,-1.910070062E0,1.910137361E0
9.325505625E0,-1.598079689E-2,9.696952067E-3,-1.912771702E0,1.912863037E0
9.335428625E0,-1.367236860E-2,9.179233573E-3,-1.910488009E0,1.910558983E0
9.345350625E0,-1.566271111E-2,8.694308810E-3,-1.911958814E0,1.912042734E0
9.355273625E0,-1.703876629E-2,1.056491304E-2,-1.909316063E0,1.909421317E0
9.365195625E0,-1.617752947E-2,9.465501644E-3,-1.909456730E0,1.909548719E0
9.375118625E0,-1.593012176E-2,1.011824328E-2,-1.910128593E0,1.910221817E0
9.385040625E0,-1.683787256E-2,7.637477480E-3,-1.910118937E0,1.910208418E0
9.394963625E0,-1.454728749E-2,1.210599486E-2,-1.910265088E0,1.910358837E0
9.404886625E0,-1.401186641E-2,9.749532677E-3,-1.908840775E0,1.908917099E0
9.414808625E0,-1.096228044E-2,1.277568284E-2,-1.907645464E0,1.907719740E0
9.424731625E0,-7.513527293E-3,1.578214020E-2,-1.909081697E0,1.909161716E0
9.434653625E0,-7.607803214E-3,1.361938659E-2,-1.905891061E0,1.905954906E0
9.444576625E0,-1.861389726E-3,1.089420822E-2,-1.907750607E0,1.907782620E0
9.454498625E0,-1.360182650E-3,1.243244950E-2,-1.907522917E0,1.907563916E0
9.464421625E0,1.114576240E-3,1.225564722E-2,-1.906437159E0,1.906476877E0
9.474343625E0,2.004870912E-3,1.384129468E-2,-1.906973958E0,1.907025243E0
9.484266625E0,3.083783900E-3,1.001091767E-2,-1.906584740E0,1.906613516E0
9.494189625E0,4.865971394E-3,1.451778505E-2,-1.905697107E0,1.905758618E0
9.504111625E0,7.999607362E-3,1.228575129E-2,-1.904476285E0,1.904532713E0
9.514034625E0,9.673936293E-3,6.515479647E-3,-1.907031536E0,1.907067203E0
9.523956625E0,8.644051850E-3,1.208096091E-2,-1.905604362E0,1.905662262E0
9.533879625E0,9.791607969E-3,9.643635713E-3,-1.904455185E0,1.904504772E0
9.543801625E0,1.329137757E-2,8.892134763E-3,-1.906082630E0,1.906149712E0
9.553724625E0,1.636786200E-2,5.816183053E-3,-1.905039191E0,1.905118383E0
9.563646625E0,1.394461188E-2,7.577874698E-3,-1.903133750E0,1.903199923E0
9.573569625E0,1.473636925E-2,4.879825749E-3,-1.902295351E0,1.902358687E0
9.583492625E0,1.430898812E-2,2.736897208E-3,-1.906039357E0,1.906095031E0
9.593414625E0,1.741982438E-2,3.130779602E-3,-1.904826522E0,1.904908746E0
9.603337625E0,1.622466929E-2,4.341108724E-4,-1.904847503E0,1.904916648E0
9.613259625E0,1.604064554E-2,9.020278230E-4,-1.901418328E0,1.901486202E0
9.623182625E0,2.023226395E-2,7.401565090E-4,-1.900262594E0,1.900370443E0
9.633104625E0,1.812916622E-2,-4.200007766E-3,-1.904041886E0,1.904132824E0
9.643027625E0,2.027028799E-2,-3.442457877E-3,-1.901609063E0,1.901720212E0
9.652950625E0,1.970303431E-2,-8.828966878E-3,-1.902384043E0,1.902506559E0
9.662872625E0,1.704281196E-2,-1.026714221E-2,-1.901803493E0,1.901907569E0
9.672795625E0,1.818530820E-2,-9.401349351E-3,-1.901419163E0,1.901529364E0
9.682721542E0,1.449074596E-2,-1.580706052E-2,-1.899950981E0,1.900071992E0
9.692644542E0,2.051907778E-2,-1.160405949E-2,-1.900466084E0,1.900612276E0
9.702566542E0,1.709794067E-2,-1.527175494E-2,-1.904460788E0,1.904598766E0
9.712489542E0,1.320999116E-2,-1.562542282E-2,-1.898344874E0,1.898455140E0
9.722411542E0,1.426839177E-2,-1.852974482E-2,-1.903072000E0,1.903215693E0
9.732334542E0,1.496454235E-2,-1.775636338E-2,-1.900115609E0,1.900257497E0
9.742257542E0,1.244249847E-2,-1.585998759E-2,-1.898600459E0,1.898707470E0
9.752179542E0,1.502709650E-2,-2.001984604E-2,-1.900074840E0,1.900239723E0
9.762102542E0,1.012143306E-2,-1.891966164E-2,-1.898105741E0,1.898227015E0
9.772024542E0,1.495986432E-2,-1.476672851E-2,-1.901023507E0,1.901139718E0
9.781947542E0,8.436953649E-3,-1.811970398E-2,-1.897184849E0,1.897290135E0
9.791869542E0,1.445969194E-2,-1.496332604E-2,-1.897853017E0,1.897967085E0
9.801792542E0,8.452117443E-3,-1.483189594E-2,-1.895926952E0,1.896003806E0
9.811715542E0,1.268015150E-2,-1.961227134E-2,-1.897080302E0,1.897224051E0
9.821637542E0,8.865647018E-3,-1.965153776E-2,-1.896856904E0,1.896979414E0
9.831560542E0,8.048322983E-3,-1.809598505E-2,-1.894780755E0,1.894884258E0
9.841482542E0,8.744865656E-3,-2.018453553E-2,-1.897769690E0,1.897897174E0
9.851405542E0,3.275797702E-3,-1.822071895E-2,-1.895944118E0,1.896034500E0
9.861327542E0,8.363128640E-3,-1.917257346E-2,-1.895918727E0,1.896034111E0
9.871250542E0,5.374795292E-3,-2.098911628E-2,-1.896498680E0,1.896622439E0
9.881172542E0,4.194457084E-3,-1.727891900E-2,-1.892792821E0,1.892876334E0
9.891095542E0,3.798977472E-3,-2.081959322E-2,-1.895678043E0,1.895796174E0
9.901018542E0,2.917426871E-3,-1.768231764E-2,-1.893911719E0,1.893996509E0
9.910940542E0,3.708385630E-3,-1.817899756E-2,-1.893432140E0,1.893523039E0
9.920863542E0,7.259314298E-4,-1.751041785E-2,-1.895334601E0,1.895415625E0
9.930785542E0,2.774168504E-3,-1.469652168E-2,-1.891974807E0,1.892033920E0
9.940708542E0,1.312073320E-3,-1.792226918E-2,-1.894871831E0,1.894957040E0
9.950630542E0,3.783486784E-3,-1.934013516E-2,-1.893367410E0,1.893469964E0
9.960553542E0,2.733095782E-3,-1.904052123E-2,-1.895413756E0,1.895511361E0
9.970475542E0,-1.256319461E-3,-1.909911074E-2,-1.892317533E0,1.892414331E0
9.980398542E0,-6.276637432E-4,-2.208901010E-2,-1.891055465E0,1.891184573E0
9.990321542E0,-9.875994874E-5,-1.486997958E-2,-1.893385530E0,1.893443923E0
1.000024354E1,2.029448515E-3,-1.705805212E-2,-1.891059041E0,1.891137063E0
1.001016654E1,1.647817553E-3,-1.613846235E-2,-1.888640642E0,1.888710311E0
1.002008854E1,-1.643659780E-3,-1.434373856E-2,-1.891734362E0,1.891789454E0
1.003001154E1,-3.267389024E-3,-1.466970984E-2,-1.890104175E0,1.890163926E0
1.003993354E1,-1.824884443E-3,-1.131775975E-2,-1.889932156E0,1.889966924E0
1.004985654E1,-6.503792014E-3,-1.482354477E-2,-1.892741561E0,1.892810781E0
1.005977854E1,-2.166105667E-3,-1.111806929E-2,-1.892492175E0,1.892526073E0
1.006970154E1,-4.803700373E-3,-1.108904090E-2,-1.891378403E0,1.891417010E0
1.007962454E1,-4.667995032E-3,-1.008073986E-2,-1.888093233E0,1.888125914E0
1.008954654E1,-3.479692619E-3,-1.136757992E-2,-1.890205622E0,1.890243006E0
1.009946954E1,-6.552537438E-3,-1.127960719E-2,-1.890466928E0,1.890511934E0
1.010939154E1,-2.598542487E-3,-1.303542964E-2,-1.889455438E0,1.889502190E0
1.011931454E1,-5.440588109E-3,-1.159094833E-2,-1.889513493E0,1.889556876E0
1.012923654E1,-2.132143127E-3,-1.058533881E-2,-1.888114572E0,1.888145447E0
1.013915954E1,-5.930470768E-3,-7.633387111E-3,-1.889202476E0,1.889227205E0
1.014908154E1,-7.325967308E-3,-6.164653227E-3,-1.890114069E0,1.890138319E0
1.015900454E1,-5.213726312E-3,-9.583183564E-3,-1.888939619E0,1.888971123E0
1.016892754E1,-6.449433044E-3,-7.736281492E-3,-1.888271928E0,1.888298790E0
1.017884954E1,-5.058947019E-3,-5.523539148E-3,-1.888052225E0,1.888067082E0
1.018877254E1,-8.232636377E-3,-2.149580047E-3,-1.887715578E0,1.887734754E0
1.019869454E1,-7.867607288E-3,-4.118900746E-3,-1.886956096E0,1.886976993E0
1.020861754E1,-8.709965274E-3,-4.055783153E-3,-1.886754513E0,1.886778976E0
1.021853954E1,-6.492882967E-3,-7.289629430E-4,-1.885146499E0,1.885157821E0
1.022846254E1,-8.704330772E-3,3.158031031E-4,-1.885395885E0,1.885416004E0
1.023838454E1,-8.267603815E-3,-2.715749666E-3,-1.888347626E0,1.888367677E0
1.024830754E1,-7.713932544E-3,-1.952754334E-3,-1.886871457E0,1.886888236E0
1.025823054E1,-7.736291271E-3,-1.231889240E-3,-1.886575103E0,1.886591367E0
1.026815254E1,-8.544826880E-3,-4.030604847E-3,-1.884734869E0,1.884758549E0
1.027807554E1,-9.468116798E-3,-4.313123412E-3,-1.886417389E0,1.886446080E0
1.028799754E1,-1.164631639E-2,-5.418211222E-4,-1.882793546E0,1.882829643E0
1.029792054E1,-1.156808715E-2,-7.384009659E-4,-1.884765744E0,1.884801389E0
1.030784254E1,-1.293961518E-2,-2.547260374E-5,-1.884443521E0,1.884487946E0
1.031776554E1,-1.581026614E-2,8.293399587E-4,-1.884178996E0,1.884245510E0
1.032768754E1,-1.755623519E-2,-2.248208970E-3,-1.886989951E0,1.887072959E0
1.033761054E1,-1.717513613E-2,-3.544901498E-3,-1.885900378E0,1.885981916E0
1.034753354E1,-1.738339476E-2,-1.358180307E-3,-1.883210659E0,1.883291378E0
1.035745554E1,-1.740561798E-2,-2.188552171E-4,-1.883759022E0,1.883839445E0
1.036737854E1,-1.805249974E-2,-3.481494263E-3,-1.883452177E0,1.883541907E0
1.037730054E1,-1.943584532E-2,-6.219036877E-4,-1.882823348E0,1.882923763E0
1.038722354E1,-1.928218082E-2,-6.549265236E-4,-1.885226846E0,1.885325566E0
1.039714554E1,-1.792768762E-2,-3.687803634E-3,-1.881435394E0,1.881524420E0
1.040706854E1,-2.039563842E-2,-8.041327819E-4,-1.885416031E0,1.885526515E0
1.041699054E1,-1.941395737E-2,-5.181189626E-4,-1.883301139E0,1.883401272E0
1.042691354E1,-1.880196296E-2,-3.168496303E-3,-1.883314252E0,1.883410769E0
1.043683654E1,-1.747939736E-2,8.105235174E-4,-1.880728841E0,1.880810240E0
1.044675854E1,-1.871936582E-2,-1.218273304E-3,-1.882562399E0,1.882655859E0
1.045668154E1,-1.518150233E-2,3.505886532E-3,-1.882009506E0,1.882074002E0
1.046660354E1,-1.433674805E-2,1.088001765E-3,-1.882918239E0,1.882973133E0
1.047652654E1,-1.115158107E-2,1.059026457E-3,-1.882182479E0,1.882215812E0
1.048644854E1,-9.677520953E-3,3.035091795E-3,-1.879638672E0,1.879666035E0
1.049637154E1,-7.941336371E-3,5.000819452E-3,-1.879443049E0,1.879466480E0
1.050629354E1,-4.516777117E-3,1.558150165E-3,-1.882870317E0,1.882876379E0
1.051621654E1,-1.712232595E-3,3.628964536E-3,-1.881052136E0,1.881056416E0
1.052613954E1,2.207407961E-3,5.806631409E-3,-1.880277157E0,1.880287418E0
1.053606154E1,4.552983679E-3,4.419029690E-3,-1.883668184E0,1.883678870E0
1.054598454E1,6.086431909E-3,8.323489688E-3,-1.881629467E0,1.881657720E0
1.055590654E1,8.809977211E-3,8.231027983E-3,-1.880089641E0,1.880128299E0
1.056582954E1,1.079909224E-2,5.939112045E-3,-1.883182168E0,1.883222497E0
1.057575154E1,1.102628931E-2,7.994865067E-3,-1.881954670E0,1.882003952E0
1.058567454E1,1.489639562E-2,3.616095521E-3,-1.879907012E0,1.879969508E0
1.059559654E1,1.615844667E-2,5.811478011E-3,-1.880632162E0,1.880710557E0
1.060551954E1,1.303535793E-2,6.283656694E-3,-1.881748557E0,1.881804197E0
1.061544254E1,1.973025873E-2,5.488838069E-3,-1.879945278E0,1.880056823E0
1.062536454E1,1.991268620E-2,7.808451541E-3,-1.879889131E0,1.880010806E0
1.063528754E1,2.501484938E-2,8.656651713E-3,-1.878306389E0,1.878492899E0
1.064520954E1,2.328299545E-2,6.480849348E-3,-1.878446460E0,1.878601927E0
1.065513254E1,2.467986383E-2,4.762836732E-3,-1.880041242E0,1.880209257E0
1.066505454E1,2.728896216E-2,6.488830782E-3,-1.877496004E0,1.877705525E0
1.067497754E1,2.905451879E-2,8.732303046E-3,-1.876323700E0,1.876568956E0
1.068489625E1,2.883321047E-2,3.945003264E-3,-1.875546813E0,1.875772578E0
1.069481925E1,2.895014361E-2,5.329978652E-3,-1.877417684E0,1.877648444E0
1.070474225E1,2.782256156E-2,1.905419864E-3,-1.878858209E0,1.879065165E0
1.071466425E1,2.969998121E-2,3.117925487E-3,-1.878232121E0,1.878469513E0
1.072458725E1,3.237858787E-2,5.111300386E-3,-1.876792192E0,1.877078430E0
1.073450925E1,2.974476852E-2,1.086642034E-3,-1.876911163E0,1.877147156E0
1.074443225E1,3.147502616E-2,2.612634562E-3,-1.878217697E0,1.878483224E0
1.075435425E1,3.307850286E-2,7.034349255E-3,-1.876205444E0,1.876510202E0
1.076427725E1,3.481648490E-2,-1.311198808E-3,-1.874205112E0,1.874528930E0
1.077419925E1,3.587682918E-2,7.288856432E-4,-1.874959111E0,1.875302468E0
1.078412225E1,3.359503299E-2,-3.655211069E-3,-1.874911904E0,1.875216424E0
1.079404525E1,3.281846270E-2,-3.392425366E-3,-1.875915408E0,1.876205527E0
1.080396725E1,2.766977437E-2,-3.164991736E-3,-1.874762774E0,1.874969624E0
1.081389025E1,2.973444387E-2,-1.048999745E-2,-1.875890970E0,1.876155940E0
1.082381225E1,2.614317089E-2,-9.108882397E-3,-1.877141595E0,1.877345734E0
1.083373525E1,2.374886908E-2,-9.472906590E-3,-1.873580694E0,1.873755150E0
1.084365725E1,2.478856593E-2,-1.429109741E-2,-1.872367382E0,1.872585999E0
1.085358025E1,2.043146081E-2,-1.377267111E-2,-1.874942303E0,1.875104202E0
1.086350225E1,2.085676603E-2,-1.454631984E-2,-1.875546575E0,1.875718943E0
1.087342525E1,1.755104400E-2,-2.227229625E-2,-1.872283936E0,1.872498659E0
1.088334825E1,2.008557506E-2,-1.816144213E-2,-1.875400901E0,1.875596387E0
1.089327025E1,1.512670889E-2,-1.998635754E-2,-1.873964429E0,1.874132053E0
1.090319325E1,1.271601487E-2,-2.415793389E-2,-1.875531077E0,1.875729758E0
1.091311525E1,1.561709587E-2,-2.638741955E-2,-1.874339342E0,1.874590131E0
1.092303825E1,8.051588200E-3,-2.813978121E-2,-1.874034405E0,1.874262955E0
1.093296025E1,8.299844339E-3,-3.008209914E-2,-1.872890353E0,1.873150313E0
1.094288325E1,6.276641041E-3,-2.803146467E-2,-1.873543620E0,1.873763821E0
1.095280525E1,3.268491244E-3,-2.925177291E-2,-1.873750806E0,1.873981972E0
1.096272825E1,3.314031288E-3,-3.005498089E-2,-1.875052333E0,1.875296119E0
1.097265125E1,8.004619158E-4,-3.082886338E-2,-1.873655558E0,1.873909338E0
1.098257325E1,3.420213470E-3,-3.089304455E-2,-1.870520830E0,1.870779050E0
1.099249625E1,-1.626349054E-3,-2.830402926E-2,-1.872289538E0,1.872504173E0
1.100241825E1,3.541781101E-3,-2.774476632E-2,-1.872457862E0,1.872666751E0
1.101234125E1,3.450385295E-3,-3.021397069E-2,-1.872333765E0,1.872580710E0
1.102226325E1,-2.310032258E-3,-2.780700661E-2,-1.874496698E0,1.874704360E0
1.103218625E1,2.316886676E-4,-2.647622488E-2,-1.873730540E0,1.873917603E0
1.104210825E1,-4.684563610E-4,-2.856014855E-2,-1.870856166E0,1.871074209E0
1.105203125E1,-2.174880821E-3,-2.276866324E-2,-1.871593118E0,1.871732871E0
1.106195425E1,-4.021783359E-3,-2.513994277E-2,-1.873993158E0,1.874166094E0
1.107187625E1,-1.639528433E-3,-2.527805045E-2,-1.870469213E0,1.870640731E0
1.108179925E1,-2.673367504E-3,-1.995891891E-2,-1.872340679E0,1.872448964E0
1.109172125E1,-5.668731406E-3,-1.849980839E-2,-1.869753957E0,1.869854068E0
1.110164425E1,-3.963775467E-3,-1.787023619E-2,-1.871209860E0,1.871299387E0
1.111156625E1,-3.054483328E-3,-1.416532788E-2,-1.870802045E0,1.870858166E0
1.112148925E1,-1.487745903E-3,-1.174424775E-2,-1.874252200E0,1.874289586E0
1.113141125E1,-8.343826979E-3,-6.174506620E-3,-1.868642092E0,1.868670921E0
1.114133425E1,-6.762442179E-3,-6.321247667E-3,-1.868494749E0,1.868517679E0
1.115125625E1,-6.486844737E-3,-3.522257321E-3,-1.870259643E0,1.870274209E0
1.116117925E1,-6.125187501E-3,1.312178560E-3,-1.868116379E0,1.868126881E0
1.117110225E1,-5.638341419E-3,3.207947128E-3,-1.870928407E0,1.870939653E0
1.118102425E1,-4.311021883E-3,8.492191322E-3,-1.870673299E0,1.870697542E0
1.119094725E1,-1.091905683E-2,1.176925283E-2,-1.870286822E0,1.870355725E0
1.120086925E1,-6.391682662E-3,1.373146940E-2,-1.869495869E0,1.869557223E0
1.121079225E1,-4.961445462E-3,1.447313372E-2,-1.869565606E0,1.869628210E0
1.122071425E1,-7.313016802E-3,2.016483992E-2,-1.866313338E0,1.866436599E0
1.123063725E1,-4.039902240E-3,1.788535714E-2,-1.870702028E0,1.870791887E0
1.124055925E1,-7.186959498E-3,2.729297429E-2,-1.868062019E0,1.868275212E0
1.125048225E1,-4.448598716E-3,2.610532194E-2,-1.867800117E0,1.867987835E0
1.126040525E1,-6.059278734E-3,2.583554387E-2,-1.866237879E0,1.866426535E0
1.127032725E1,-1.478800084E-3,2.929102257E-2,-1.868682504E0,1.868912639E0
1.128025025E1,-8.491169661E-3,2.924015746E-2,-1.868933678E0,1.869181687E0
1.129017225E1,-3.169937059E-3,2.989549935E-2,-1.870105982E0,1.870347607E0
1.130009525E1,-4.609375726E-3,3.071681783E-2,-1.867648482E0,1.867906749E0
1.131001725E1,-8.410309441E-3,2.822058275E-2,-1.868952632E0,1.869184602E0
1.131994025E1,-6.850761827E-3,2.772204205E-2,-1.868157864E0,1.868376099E0
1.132986225E1,-7.097211666E-3,2.756035700E-2,-1.865317941E0,1.865535034E0
1.133978525E1,-1.894992543E-3,2.479279786E-2,-1.866421819E0,1.866587442E0
1.134970825E1,-8.990099304E-4,2.013333887E-2,-1.867865205E0,1.867973925E0
1.135963025E1,-2.544577001E-3,1.861507073E-2,-1.865101695E0,1.865196324E0
1.136955325E1,1.101043890E-3,1.652488485E-2,-1.866192460E0,1.866265946E0
1.137947525E1,8.144877502E-4,1.366571430E-2,-1.862738848E0,1.862789153E0
1.138939825E1,3.182501066E-3,9.520213120E-3,-1.864765167E0,1.864792185E0
1.139932025E1,5.530876573E-3,5.313749425E-3,-1.865079641E0,1.865095412E0
1.140924325E1,3.345723031E-3,1.283501275E-3,-1.866974711E0,1.866978150E0
1.141916525E1,4.491681233E-3,-2.789538354E-3,-1.865800500E0,1.865807992E0
1.142908825E1,6.360264495E-3,-5.666238256E-3,-1.865221977E0,1.865241428E0
1.143901025E1,6.451344583E-3,-7.256145589E-3,-1.863845468E0,1.863870757E0
1.144893325E1,4.704694264E-3,-1.388505660E-2,-1.863420963E0,1.863478633E0
1.145885625E1,6.852799561E-3,-1.901110820E-2,-1.864804149E0,1.864913643E0
1.146877825E1,1.209918875E-2,-2.623677254E-2,-1.865412116E0,1.865635849E0
1.147870125E1,1.094044745E-2,-2.334244922E-2,-1.863660812E0,1.863839099E0
1.148862325E1,1.424129680E-2,-3.050459921E-2,-1.863430023E0,1.863734100E0
1.149854625E1,1.271983329E-2,-3.441891447E-2,-1.864066720E0,1.864427846E0
1.150846825E1,1.775231957E-2,-3.542282060E-2,-1.862981081E0,1.863402380E0
1.151839125E1,1.985035837E-2,-4.200375825E-2,-1.863609672E0,1.864188660E0
1.152831325E1,1.809423976E-2,-4.241288081E-2,-1.863078356E0,1.863648898E0
1.153823625E1,1.938001439E-2,-4.316682369E-2,-1.859265208E0,1.859867220E0
1.154815925E1,2.095251158E-2,-4.148568586E-2,-1.862637997E0,1.863217748E0
1.155808125E1,1.985582151E-2,-4.287638888E-2,-1.861395359E0,1.861994984E0
1.156800425E1,1.812850684E-2,-4.451803118E-2,-1.859914303E0,1.860535329E0
1.157792625E1,1.578892022E-2,-4.080851376E-2,-1.864010334E0,1.864523840E0
1.158784925E1,9.592256509E-3,-4.246539623E-2,-1.862816930E0,1.863325585E0
1.159777125E1,1.044100616E-2,-3.118903935E-2,-1.861647248E0,1.861937767E0
1.160769425E1,8.642859757E-3,-2.658936381E-2,-1.861931205E0,1.862141108E0
1.161761625E1,4.743192811E-3,-2.121350542E-2,-1.862416148E0,1.862542998E0
1.162753925E1,-1.869249158E-3,-6.931757554E-3,-1.860209107E0,1.860222962E0
1.163746225E1,-3.774741199E-3,-4.136237316E-3,-1.861268520E0,1.861276944E0
1.164738425E1,-1.215858944E-2,7.409286685E-3,-1.859315157E0,1.859369673E0
1.165730725E1,-1.207975950E-2,1.518225577E-2,-1.860324979E0,1.860426147E0
1.166722925E1,-1.381598320E-2,1.339283492E-2,-1.861445665E0,1.861545115E0
1.167715225E1,-1.855987124E-2,1.924566552E-2,-1.860044599E0,1.860236752E0
1.168707817E1,-2.059639059E-2,1.867867634E-2,-1.859885097E0,1.860092922E0
1.169700117E1,-2.315675467E-2,2.075114846E-2,-1.857727051E0,1.857987255E0
1.170692317E1,-2.015414834E-2,2.511630207E-2,-1.860107660E0,1.860386392E0
1.171684617E1,-2.387138829E-2,2.244381979E-2,-1.857137203E0,1.857426219E0
1.172676817E1,-2.522168867E-2,2.062968910E-2,-1.859442949E0,1.859728421E0
1.173669117E1,-2.202216722E-2,2.057642862E-2,-1.858554244E0,1.858798602E0
1.174661417E1,-1.963920146E-2,1.900243759E-2,-1.859873295E0,1.860074048E0
1.175653617E1,-2.032389864E-2,2.002136409E-2,-1.859520197E0,1.859739035E0
1.176645917E1,-2.043735050E-2,1.826846972E-2,-1.856617928E0,1.856820280E0
1.177638117E1,-1.549612265E-2,1.786766574E-2,-1.856802940E0,1.856953565E0
1.178630417E1,-1.308245957E-2,1.916248724E-2,-1.857265353E0,1.857410279E0
1.179622617E1,-1.014579181E-2,1.383057144E-2,-1.859119892E0,1.859199020E0
1.180614917E1,-4.264653660E-3,1.219058502E-2,-1.855943561E0,1.855988496E0
1.181607117E1,-7.434614003E-3,1.243080106E-2,-1.857451677E0,1.857508151E0
1.182599417E1,1.045483514E-4,2.133284695E-3,-1.856861234E0,1.856862462E0
1.183591717E1,8.220039308E-4,6.408457644E-3,-1.855362058E0,1.855373307E0
1.184583917E1,5.231330637E-3,2.234431915E-3,-1.857057095E0,1.857065807E0
1.185576217E1,7.671851199E-3,-2.862059511E-3,-1.855563045E0,1.855581111E0
1.186568417E1,1.450281031E-2,-1.830807887E-3,-1.854849339E0,1.854906939E0
1.187560717E1,1.160023082E-2,-6.279618479E-3,-1.855553150E0,1.855600036E0
1.188552917E1,1.904670522E-2,-1.317141484E-2,-1.855627775E0,1.855772266E0
1.189545217E1,1.988133974E-2,-1.203824021E-2,-1.853788018E0,1.853933711E0
1.190537417E1,2.366762608E-2,-1.443982497E-2,-1.855740666E0,1.855947759E0
1.191529717E1,2.780990675E-2,-1.811818220E-2,-1.854690552E0,1.854987521E0
1.192521917E1,3.172319382E-2,-1.546035521E-2,-1.853667736E0,1.854003630E0
1.193514217E1,3.371337429E-2,-2.341122180E-2,-1.853766322E0,1.854220659E0
1.194506517E1,3.483647853E-2,-2.198464051E-2,-1.854216456E0,1.854673980E0
1.195498717E1,3.959794343E-2,-2.015531436E-2,-1.854559660E0,1.855091848E0
1.196491017E1,4.388912395E-2,-2.484294772E-2,-1.852495432E0,1.853181792E0
1.197483217E1,4.461883008E-2,-2.143703029E-2,-1.853004098E0,1.853665173E0
1.198475517E1,4.619837925E-2,-2.453478053E-2,-1.852095604E0,1.852834146E0
1.199467717E1,4.686789960E-2,-2.935217321E-2,-1.851825476E0,1.852651004E0
1.200460017E1,4.449956119E-2,-2.446427383E-2,-1.851149678E0,1.851846063E0
1.201452217E1,4.078951105E-2,-2.753809467E-2,-1.850013733E0,1.850668242E0
1.202444517E1,3.421672434E-2,-2.584701777E-2,-1.849289536E0,1.849786648E0
1.203436817E1,3.049149178E-2,-2.299690247E-2,-1.851543665E0,1.851937508E0
1.204429017E1,2.293406241E-2,-2.349447832E-2,-1.851415992E0,1.851707087E0
1.205421317E1,2.026770450E-2,-2.332243882E-2,-1.852186441E0,1.852444150E0
1.206413517E1,1.332796179E-2,-1.936734654E-2,-1.850773454E0,1.850922771E0
1.207405817E1,-2.383623505E-3,-1.627701521E-2,-1.849469900E0,1.849543061E0
1.208398017E1,-1.625666022E-2,-8.492980152E-3,-1.849089980E0,1.849180944E0
1.209390317E1,-2.793329023E-2,-6.469244137E-3,-1.849905133E0,1.850127326E0
1.210382517E1,-3.488237783E-2,-4.342287779E-3,-1.848697066E0,1.849031227E0
1.211374817E1,-3.898337856E-2,4.633860663E-4,-1.847641230E0,1.848052497E0
1.212367017E1,-4.049121961E-2,-2.114830539E-3,-1.848655343E0,1.849099940E0
1.213359317E1,-4.353468120E-2,1.470849849E-3,-1.849224687E0,1.849737650E0
1.214351617E1,-4.698308185E-2,1.210036688E-3,-1.847193480E0,1.847791283E0
1.215343817E1,-4.761158675E-2,1.124548726E-3,-1.846882463E0,1.847496403E0
1.216336117E1,-4.343212023E-2,-1.823501661E-4,-1.846624255E0,1.847134950E0
1.217328317E1,-4.356421158E-2,3.551934846E-3,-1.847751021E0,1.848267917E0
1.218320617E1,-3.827907145E-2,1.484340988E-3,-1.848556519E0,1.848953405E0
1.219312817E1,-3.982263803E-2,-6.155604497E-4,-1.847498655E0,1.847927894E0
1.220305117E1,-3.750513494E-2,-1.073493622E-3,-1.845833063E0,1.846214366E0
1.221297317E1,-3.321078792E-2,-2.128638327E-3,-1.847886324E0,1.848185963E0
1.222289617E1,-3.160715848E-2,-4.792215303E-3,-1.846063972E0,1.846340750E0
1.223281817E1,-2.945932187E-2,-4.057448357E-3,-1.843043685E0,1.843283575E0
1.224274117E1,-2.129261941E-2,-3.965087235E-3,-1.845866561E0,1.845993624E0
1.225266417E1,-1.862253435E-2,-5.536885001E-3,-1.847648025E0,1.847750167E0
1.226258617E1,-1.239020471E-2,-1.021499373E-2,-1.844010592E0,1.844080509E0
1.227250917E1,-1.015368197E-2,-8.016021922E-3,-1.843395472E0,1.843440864E0
1.228243117E1,-6.340380758E-3,-6.549139507E-3,-1.844741225E0,1.844763746E0
1.229235417E1,-1.871596323E-3,-1.385285892E-2,-1.842782736E0,1.842835754E0
1.230227617E1,5.885037826E-4,-8.079280145E-3,-1.845871329E0,1.845889104E0
1.231219917E1,8.392364718E-3,-1.178613398E-2,-1.843582630E0,1.843639406E0
1.232212117E1,1.100503374E-2,-1.558883581E-2,-1.842791796E0,1.842890590E0
1.233204417E1,1.297923550E-2,-1.420319267E-2,-1.842848063E0,1.842948500E0
1.234196717E1,1.991353557E-2,-1.365854125E-2,-1.842700124E0,1.842858337E0
1.235188917E1,2.185284905E-2,-1.322817430E-2,-1.843754411E0,1.843931360E0
1.236181217E1,2.453931794E-2,-1.296737045E-2,-1.842657447E0,1.842866462E0
1.237173417E1,2.776946500E-2,-1.303607970E-2,-1.841436744E0,1.841692255E0
1.238165717E1,3.031830303E-2,-1.336104143E-2,-1.841370583E0,1.841668629E0
1.239157917E1,3.411064669E-2,-1.238206308E-2,-1.844349861E0,1.844706823E0
1.240150217E1,3.967994824E-2,-1.670400240E-2,-1.840518236E0,1.841021700E0
1.241142417E1,4.138250649E-2,-1.383764297E-2,-1.842381954E0,1.842898602E0
1.242134717E1,4.248785973E-2,-1.345697511E-2,-1.841354728E0,1.841894009E0
1.243126917E1,4.358668253E-2,-1.505806763E-2,-1.840072155E0,1.840649907E0
1.244119217E1,4.899161309E-2,-1.214331202E-2,-1.840546489E0,1.841238446E0
1.245111517E1,4.913915321E-2,-1.693620346E-2,-1.839240789E0,1.839975047E0
1.246103717E1,5.182491243E-2,-1.252893172E-2,-1.839305997E0,1.840078625E0
1.247096017E1,5.037268996E-2,-1.550128590E-2,-1.841555834E0,1.842309851E0
1.248088217E1,4.686006904E-2,-1.595117711E-2,-1.840579629E0,1.841245143E0
1.249080517E1,4.068073630E-2,-1.201182790E-2,-1.839880586E0,1.840369467E0
1.250072717E1,3.767935559E-2,-1.530509349E-2,-1.836887717E0,1.837337875E0
1.251065017E1,3.410672396E-2,-1.327869389E-2,-1.838351130E0,1.838715441E0
1.252057217E1,2.804177813E-2,-1.065935753E-2,-1.838517070E0,1.838761806E0
1.253049517E1,2.620872483E-2,-9.980252013E-3,-1.838284850E0,1.838498761E0
1.254041717E1,1.978190616E-2,-1.030728035E-2,-1.836939454E0,1.837074882E0
1.255034017E1,1.279004291E-2,-1.150783338E-2,-1.836200595E0,1.836281199E0
1.256026317E1,5.723827984E-3,-1.173652429E-2,-1.840237975E0,1.840284302E0
1.257018517E1,2.401130623E-4,-5.028287880E-3,-1.836921573E0,1.836928470E0
1.258010817E1,-5.501386244E-3,-1.166894753E-2,-1.838253140E0,1.838298408E0
1.259003017E1,-9.298254736E-3,-8.991405368E-3,-1.835453868E0,1.835499443E0
1.259995317E1,-1.076451223E-2,-9.046543390E-3,-1.835303426E0,1.835357289E0
1.260987517E1,-2.045921795E-2,-1.019090414E-2,-1.834613681E0,1.834756058E0
1.261979817E1,-2.608868666E-2,-1.256510057E-2,-1.834932923E0,1.835161392E0
1.262972017E1,-2.925784700E-2,-6.568994373E-3,-1.837170601E0,1.837415301E0
1.263964317E1,-3.017820604E-2,-1.503858343E-2,-1.833612323E0,1.833922308E0
1.264956517E1,-3.229409084E-2,-7.284790277E-3,-1.832393885E0,1.832692916E0
1.265948817E1,-3.884444758E-2,-1.144697145E-2,-1.838388205E0,1.838834173E0
1.266941117E1,-3.749076277E-2,-1.213486679E-2,-1.833345771E0,1.833769213E0
1.267933317E1,-4.231001064E-2,-8.657909930E-3,-1.834199548E0,1.834707900E0
1.268925217E1,-4.120239988E-2,-1.126248203E-2,-1.832805395E0,1.833303057E0
1.269917417E1,-4.443419725E-2,-1.078516897E-2,-1.834879875E0,1.835449502E0
1.270909717E1,-4.172656313E-2,-1.103204396E-2,-1.833031654E0,1.833539707E0
1.271901917E1,-3.846310452E-2,-7.502426393E-3,-1.834174871E0,1.834593458E0
1.272894217E1,-3.810650483E-2,-7.141834125E-3,-1.833790898E0,1.834200690E0
1.273886417E1,-3.732066602E-2,-7.626388222E-3,-1.831449389E0,1.831845479E0
1.274878717E1,-3.231712058E-2,-3.177044913E-3,-1.831725001E0,1.832012819E0
1.275870917E1,-2.884329297E-2,-1.775156707E-3,-1.831677675E0,1.831905618E0
1.276863217E1,-3.042199463E-2,-2.895418555E-3,-1.831739187E0,1.831994086E0
1.277855517E1,-2.258158103E-2,4.642149433E-4,-1.830472231E0,1.830611573E0
1.278847717E1,-2.561385557E-2,1.116956584E-3,-1.833694339E0,1.833873563E0
1.279840017E1,-2.031189576E-2,-9.463438764E-4,-1.831333756E0,1.831446640E0
1.280832217E1,-1.928151958E-2,5.894252099E-3,-1.833747029E0,1.833857870E0
1.281824517E1,-1.268777903E-2,4.277546890E-3,-1.828524470E0,1.828573492E0
1.282816717E1,-1.639223658E-2,3.726272844E-3,-1.828493357E0,1.828570629E0
1.283809017E1,-8.210097440E-3,3.644562326E-3,-1.830685496E0,1.830707534E0
1.284801217E1,-4.101638217E-3,5.751389079E-3,-1.829254270E0,1.829267910E0
1.285793517E1,-2.594487742E-3,7.035336457E-3,-1.827693343E0,1.827708725E0
1.286785717E1,-2.791355946E-4,7.518167607E-3,-1.827538013E0,1.827553499E0
1.287778017E1,3.331175074E-3,1.085182000E-2,-1.828643799E0,1.828679032E0
1.288770317E1,6.509124767E-3,1.093437802E-2,-1.827244878E0,1.827289187E0
1.289762517E1,7.044025697E-3,1.110999379E-2,-1.827051640E0,1.827098997E0
1.290754817E1,1.057990454E-2,1.358619984E-2,-1.827287555E0,1.827368689E0
1.291747017E1,1.335675269E-2,1.124894712E-2,-1.828376055E0,1.828459444E0
1.292739317E1,1.421881840E-2,1.580428332E-2,-1.826465487E0,1.826589206E0
1.293731517E1,1.784506626E-2,1.346968021E-2,-1.827856660E0,1.827993394E0
1.294723817E1,2.236098982E-2,1.572883874E-2,-1.828170180E0,1.828374584E0
1.295716017E1,2.273990586E-2,1.780775562E-2,-1.825638413E0,1.825866872E0
1.296708317E1,2.564967610E-2,1.662211865E-2,-1.826331377E0,1.826587118E0
1.297700517E1,2.926546149E-2,1.648544520E-2,-1.824913144E0,1.825222239E0
1.298692817E1,2.949688956E-2,1.808414236E-2,-1.825914979E0,1.826242759E0
1.299685117E1,3.154934943E-2,1.915660128E-2,-1.827651143E0,1.828023807E0
1.300677317E1,3.394619375E-2,1.946366578E-2,-1.824739456E0,1.825158969E0
1.301669617E1,3.204617649E-2,2.133325487E-2,-1.824382305E0,1.824788443E0
1.302661817E1,3.778368980E-2,1.760509610E-2,-1.825595140E0,1.826070963E0
1.303654117E1,3.669523448E-2,2.306258306E-2,-1.823637724E0,1.824152672E0
1.304646317E1,3.645555303E-2,2.028144524E-2,-1.824178338E0,1.824655297E0
1.305638617E1,3.854534402E-2,1.989252120E-2,-1.825811982E0,1.826327148E0
1.306630817E1,3.517218307E-2,2.191732451E-2,-1.821136832E0,1.821608304E0
1.307623117E1,3.862812743E-2,2.069203928E-2,-1.823830485E0,1.824356854E0
1.308615317E1,4.180128500E-2,1.982704550E-2,-1.822660923E0,1.823248008E0
1.309607617E1,3.308432549E-2,2.346554026E-2,-1.823109150E0,1.823560302E0
1.310599917E1,3.497250751E-2,1.817091182E-2,-1.823751569E0,1.824177361E0
1.311592117E1,3.465014696E-2,2.105276659E-2,-1.822908044E0,1.823358875E0
1.312584417E1,3.266635910E-2,1.778932661E-2,-1.825196147E0,1.825575122E0
1.313576617E1,3.048107773E-2,1.618479192E-2,-1.821626067E0,1.821952956E0
1.314568917E1,3.009598330E-2,1.401218679E-2,-1.824878097E0,1.825180040E0
1.315561117E1,2.695397474E-2,1.159463543E-2,-1.820595741E0,1.820832174E0
1.316553417E1,2.185668424E-2,6.603340618E-3,-1.822161674E0,1.822304718E0
1.317545617E1,2.389425971E-2,9.199458174E-3,-1.821786404E0,1.821966319E0
1.318537917E1,1.550343912E-2,3.542904742E-3,-1.818232656E0,1.818302202E0
1.319530117E1,1.830548793E-2,-1.273043454E-3,-1.822345853E0,1.822438235E0
1.320522417E1,8.710918017E-3,-3.222944215E-4,-1.820972204E0,1.820993068E0
1.321514717E1,1.003072225E-2,-4.727288149E-3,-1.820181966E0,1.820215743E0
1.322506917E1,6.713754497E-3,-8.422689512E-3,-1.821911454E0,1.821943293E0
1.323499217E1,3.593319096E-3,-1.093425043E-2,-1.819044828E0,1.819081240E0
1.324491417E1,3.475341015E-3,-1.601316407E-2,-1.818336487E0,1.818410316E0
1.325483717E1,-1.598977717E-3,-1.796733402E-2,-1.819222689E0,1.819312115E0
1.326475917E1,1.027822727E-4,-1.976044104E-2,-1.819726348E0,1.819833637E0
1.327468217E1,-2.474407665E-3,-2.610561624E-2,-1.820098639E0,1.820287527E0
1.328460417E1,-5.414004903E-3,-2.864919975E-2,-1.816259384E0,1.816493391E0
1.329452717E1,-3.535148222E-3,-2.965795621E-2,-1.817628503E0,1.817873886E0
1.330444917E1,-7.407118101E-3,-3.144866601E-2,-1.817383528E0,1.817670699E0
1.331437217E1,-7.563481107E-3,-2.802068926E-2,-1.819388151E0,1.819619633E0
1.332429417E1,-9.233017452E-3,-3.397604823E-2,-1.818504214E0,1.818845018E0
1.333421717E1,-8.318695240E-3,-3.079424798E-2,-1.815596342E0,1.815876528E0
1.334414017E1,-1.243327931E-2,-2.969968691E-2,-1.817911863E0,1.818196964E0
1.335406217E1,-1.222609449E-2,-3.066954389E-2,-1.816947103E0,1.817247059E0
1.336398517E1,-1.127108466E-2,-3.260326385E-2,-1.818675995E0,1.819003129E0
1.337390717E1,-1.200676803E-2,-3.201761842E-2,-1.815227866E0,1.815549916E0
1.338383017E1,-1.048770081E-2,-3.058616817E-2,-1.816133618E0,1.816421434E0
1.339375217E1,-1.434659213E-2,-2.830724046E-2,-1.815674424E0,1.815951745E0
1.340367517E1,-1.028500497E-2,-3.044815361E-2,-1.815658689E0,1.815943101E0
1.341359717E1,-1.249442343E-2,-2.927459031E-2,-1.818054914E0,1.818333518E0
1.342352017E1,-1.408006996E-2,-2.498769946E-2,-1.817514896E0,1.817741190E0
1.343344217E1,-9.063551202E-3,-2.980694920E-2,-1.814252496E0,1.814519970E0
1.344336517E1,-1.415471639E-2,-2.890946344E-2,-1.815476775E0,1.815762108E0
1.345328817E1,-1.436491869E-2,-2.751422301E-2,-1.815414906E0,1.815680220E0
1.346321017E1,-1.375425514E-2,-2.430111915E-2,-1.816117525E0,1.816332180E0
1.347313317E1,-1.512283366E-2,-2.562564611E-2,-1.815546989E0,1.815790804E0
1.348305517E1,-1.562191080E-2,-2.411856130E-2,-1.815770745E0,1.815998114E0
1.349297817E1,-1.486446802E-2,-2.342188545E-2,-1.816015720E0,1.816227583E0
1.350290017E1,-1.369906962E-2,-2.653511986E-2,-1.815514565E0,1.815760147E0
1.351282317E1,-1.344743930E-2,-2.084074356E-2,-1.814017296E0,1.814186848E0
1.352274517E1,-1.752687059E-2,-2.583576739E-2,-1.813209057E0,1.813477809E0
1.353266817E1,-1.715537906E-2,-1.948905364E-2,-1.813476205E0,1.813662062E0
1.354259017E1,-1.621155441E-2,-1.899903268E-2,-1.813087583E0,1.813259595E0
1.355251317E1,-1.496519521E-2,-1.918385550E-2,-1.812605619E0,1.812768907E0
1.356243617E1,-1.840732992E-2,-1.119037718E-2,-1.812703609E0,1.812831606E0
1.357235817E1,-1.391158998E-2,-1.383104362E-2,-1.812498808E0,1.812604965E0
1.358228117E1,-1.840833761E-2,-1.773230731E-2,-1.812182903E0,1.812363147E0
1.359220317E1,-1.681259088E-2,-1.065828465E-2,-1.814593911E0,1.814703095E0
1.360212617E1,-1.521389559E-2,-8.299523965E-3,-1.813121676E0,1.813204500E0
1.361204817E1,-1.937468164E-2,-1.128027868E-2,-1.811028123E0,1.811166885E0
1.362197117E1,-1.810914837E-2,-6.567282602E-3,-1.812001824E0,1.812104214E0
1.363189317E1,-1.840317063E-2,-6.109416485E-3,-1.812121630E0,1.812225373E0
1.364181617E1,-1.967456378E-2,-8.635157719E-3,-1.812155008E0,1.812282381E0
1.365173817E1,-1.307011023E-2,-4.723821767E-3,-1.810832977E0,1.810886306E0
1.366166117E1,-1.955943368E-2,-2.060661092E-3,-1.811182380E0,1.811289163E0
1.367158317E1,-1.504452806E-2,-5.032821558E-3,-1.811336040E0,1.811405509E0
1.368150617E1,-1.993701980E-2,-4.052511416E-3,-1.810482740E0,1.810597045E0
1.369142888E1,-1.949916966E-2,-1.027096994E-3,-1.810080409E0,1.810185725E0
1.370135088E1,-1.873670518E-2,-2.989847213E-3,-1.811546683E0,1.811646044E0
1.371127388E1,-2.122041769E-2,1.350645907E-3,-1.809532285E0,1.809657211E0
1.372119588E1,-1.772288792E-2,2.490212210E-3,-1.811423182E0,1.811511592E0
1.373111888E1,-1.938512549E-2,4.323319532E-3,-1.809700012E0,1.809808998E0
1.374104088E1,-1.870948263E-2,3.232489340E-3,-1.808840394E0,1.808940039E0
1.375096387E1,-1.759918034E-2,2.735341899E-3,-1.811309099E0,1.811396662E0
1.376088588E1,-1.789452508E-2,1.168036740E-2,-1.809692383E0,1.809818545E0
1.377080888E1,-1.425480284E-2,5.771479569E-3,-1.808033943E0,1.808099347E0
1.378073087E1,-1.572087407E-2,9.614954703E-3,-1.809745550E0,1.809839371E0
1.379065388E1,-1.446232200E-2,1.216347050E-2,-1.809090734E0,1.809189429E0
1.380057688E1,-1.468602661E-2,1.389958430E-2,-1.808009744E0,1.808122814E0
1.381049887E1,-1.278038695E-2,1.483650226E-2,-1.808742762E0,1.808848760E0
1.382042188E1,-8.824260905E-3,1.288813446E-2,-1.807653785E0,1.807721266E0
1.383034388E1,-7.598191965E-3,1.555167045E-2,-1.809266448E0,1.809349239E0
1.384026687E1,-5.831983872E-3,1.732613519E-2,-1.808642507E0,1.808734896E0
1.385018888E1,-2.465570346E-3,2.042399719E-2,-1.810769558E0,1.810886416E0
1.386011188E1,-1.839727396E-3,2.043598145E-2,-1.808401227E0,1.808517628E0
1.387003387E1,4.237324465E-4,2.231803536E-2,-1.810298443E0,1.810436060E0
1.387995688E1,4.227791447E-3,2.540357038E-2,-1.806664586E0,1.806848124E0
1.388987888E1,8.451119997E-3,2.507246658E-2,-1.810228467E0,1.810421816E0
1.389980187E1,1.076860260E-2,2.509457245E-2,-1.807549834E0,1.807756096E0
1.390972388E1,1.562083419E-2,2.648188546E-2,-1.807786822E0,1.808048256E0
1.391964688E1,1.507062465E-2,2.917833626E-2,-1.805389524E0,1.805688188E0
1.392956987E1,1.967718266E-2,2.455421537E-2,-1.805830240E0,1.806104360E0
1.393949188E1,2.591430582E-2,2.934097871E-2,-1.802750826E0,1.803175805E0
1.394941488E1,2.427687682E-2,3.123689443E-2,-1.805773735E0,1.806207046E0
1.395933687E1,2.806948498E-2,2.524371445E-2,-1.806376219E0,1.806770651E0
1.396925988E1,2.930098027E-2,2.968496457E-2,-1.804972529E0,1.805454396E0
1.397918188E1,2.832146920E-2,2.576905489E-2,-1.807645321E0,1.808050817E0
1.398910487E1,3.451488540E-2,3.001783043E-2,-1.804580927E0,1.805160566E0
1.399902688E1,3.153907135E-2,2.635731548E-2,-1.806473613E0,1.806941154E0
1.400894988E1,3.065714054E-2,2.548274770E-2,-1.806676865E0,1.807116633E0
1.401887187E1,2.536943369E-2,2.239161730E-2,-1.803804398E0,1.804121752E0
1.402879488E1,2.916909382E-2,2.250392362E-2,-1.804704189E0,1.805080185E0
1.403871688E1,2.574799769E-2,2.291031927E-2,-1.805638433E0,1.805967328E0
1.404863987E1,2.874264307E-2,1.852223650E-2,-1.805516243E0,1.805840003E0
1.405856288E1,2.531648800E-2,1.762954518E-2,-1.808587074E0,1.808850168E0
1.406848488E1,2.248372138E-2,1.240841392E-2,-1.803314328E0,1.803497173E0
1.407840788E1,2.408161759E-2,1.306062285E-2,-1.805573463E0,1.805781281E0
1.408832988E1,2.101427689E-2,4.801820032E-3,-1.805094123E0,1.805222826E0
1.409825288E1,2.115329355E-2,5.161347799E-3,-1.805165529E0,1.805296842E0
1.410817488E1,2.380372956E-2,1.724935137E-3,-1.804983616E0,1.805141392E0
1.411809787E1,1.934213564E-2,8.024154231E-4,-1.804797411E0,1.804901232E0
1.412801988E1,2.368702739E-2,-1.452648081E-3,-1.803772807E0,1.803928914E0
1.413794288E1,1.942570321E-2,-6.061514840E-3,-1.802903533E0,1.803018372E0
1.414786487E1,2.026042528E-2,-1.010666974E-2,-1.804705262E0,1.804847282E0
1.415778788E1,1.920980774E-2,-1.187074743E-2,-1.802522063E0,1.802663507E0
1.416770988E1,1.578563452E-2,-1.514644921E-2,-1.803975582E0,1.804108229E0
1.417763287E1,1.494061295E-2,-1.652596705E-2,-1.803572655E0,1.803710246E0
1.418755588E1,1.251630858E-2,-2.077084407E-2,-1.802514553E0,1.802677675E0
1.419747788E1,1.282097492E-2,-2.421591058E-2,-1.802698374E0,1.802906602E0
1.420740087E1,9.865564294E-3,-2.451106533E-2,-1.803291202E0,1.803484760E0
1.421732288E1,1.043361612E-2,-3.045604005E-2,-1.801151037E0,1.801438728E0
1.422724588E1,5.376379006E-3,-2.863783389E-2,-1.803160071E0,1.803395485E0
1.423716787E1,6.211812608E-3,-3.147090599E-2,-1.802269697E0,1.802555149E0
1.424709088E1,4.642012529E-3,-3.539737314E-2,-1.802365303E0,1.802718838E0
1.425701288E1,1.518124714E-3,-3.622055799E-2,-1.802619934E0,1.802984432E0
1.426693587E1,1.775386045E-3,-3.781099617E-2,-1.801170826E0,1.801568530E0
1.427685788E1,-1.488850452E-3,-3.702296689E-2,-1.801144719E0,1.801525802E0
1.428678088E1,3.545480082E-3,-4.129523039E-2,-1.802474380E0,1.802950847E0
1.429670387E1,3.460258944E-3,-4.176128283E-2,-1.803103089E0,1.803589956E0
1.430662588E1,-1.400191104E-5,-4.082376137E-2,-1.800484061E0,1.800946816E0
1.431654888E1,1.737825456E-3,-4.162137955E-2,-1.800292015E0,1.800773917E0
1.432647087E1,3.590231063E-3,-3.683050722E-2,-1.800094366E0,1.800474688E0
1.433639388E1,5.137793720E-3,-3.569094092E-2,-1.800104380E0,1.800465500E0
1.434631588E1,6.382782478E-3,-3.506962210E-2,-1.800712109E0,1.801064884E0
1.435623887E1,1.179166231E-2,-3.064052016E-2,-1.800276995E0,1.800576336E0
1.436616088E1,1.585961133E-2,-2.594303340E-2,-1.801891923E0,1.802148460E0
1.437608388E1,1.486305613E-2,-2.661441639E-2,-1.798936129E0,1.799194384E0
1.438600587E1,2.156604454E-2,-2.032670006E-2,-1.801713467E0,1.801957182E0
1.439592888E1,2.080091834E-2,-1.780814864E-2,-1.799497247E0,1.799705573E0
1.440585088E1,2.915230766E-2,-1.162654907E-2,-1.799177408E0,1.799451133E0
1.441577388E1,2.674241178E-2,-6.088771857E-3,-1.799565911E0,1.799774902E0
1.442569688E1,3.030645289E-2,-7.084056735E-3,-1.798315287E0,1.798584592E0
1.443561888E1,3.627219796E-2,-3.103962168E-3,-1.800147295E0,1.800515368E0
1.444554188E1,3.683415428E-2,3.728440963E-3,-1.800190687E0,1.800571344E0
1.445546388E1,3.854257241E-2,-1.121441834E-3,-1.798598886E0,1.799012156E0
1.446538688E1,3.998821601E-2,2.216025256E-3,-1.797582150E0,1.798028240E0
1.447530888E1,3.584886342E-2,4.684775136E-3,-1.797297478E0,1.797661067E0
1.448523187E1,3.964142501E-2,5.762095563E-3,-1.799497008E0,1.799942812E0
1.449515388E1,3.501391411E-2,9.365086444E-3,-1.798688412E0,1.799053552E0
1.450507688E1,3.166952729E-2,1.152670663E-2,-1.799595475E0,1.799911025E0
1.451499887E1,3.359871730E-2,1.324977260E-2,-1.799664974E0,1.800027347E0
1.452492188E1,3.247753903E-2,1.176552381E-2,-1.800078869E0,1.800410273E0
1.453484388E1,2.936030924E-2,1.110798959E-2,-1.798000574E0,1.798274584E0
1.454476687E1,2.860345691E-2,1.223277394E-2,-1.798631668E0,1.798900685E0
1.455468988E1,2.519674227E-2,9.470011108E-3,-1.800965905E0,1.801167052E0
1.456461188E1,2.377805673E-2,9.212617762E-3,-1.798545718E0,1.798726485E0
1.457453487E1,2.388271876E-2,7.602470927E-3,-1.797848225E0,1.798022920E0
1.458445688E1,1.325835288E-2,9.005087428E-3,-1.798669219E0,1.798740625E0
1.459437988E1,1.378486026E-2,6.075077690E-3,-1.799095392E0,1.799158459E0
1.460430187E1,9.780865163E-3,4.334497266E-3,-1.798013806E0,1.798045634E0
1.461422488E1,7.839154452E-3,3.562181257E-3,-1.798534274E0,1.798554886E0
1.462414688E1,3.684773110E-3,4.606703296E-4,-1.798420548E0,1.798424382E0
1.463406987E1,1.168618561E-3,-1.949993894E-4,-1.797544360E0,1.797544751E0
1.464399188E1,2.336099511E-3,-3.621745855E-4,-1.795857191E0,1.795858747E0
1.465391488E1,-2.340677660E-3,-3.065816127E-3,-1.797370911E0,1.797375049E0
1.466383687E1,-4.833182786E-3,-6.342981011E-3,-1.797216535E0,1.797234227E0
1.467375988E1,-8.729919791E-3,-6.511559710E-3,-1.795047045E0,1.795080083E0
1.468368288E1,-1.081613917E-2,-8.560255170E-3,-1.796630025E0,1.796682975E0
1.469360562E1,-1.682396419E-2,-9.593561292E-3,-1.796267629E0,1.796372032E0
1.470352863E1,-1.483467128E-2,-1.276211347E-2,-1.797366738E0,1.797473263E0
1.471345063E1,-1.739396714E-2,-1.796433330E-2,-1.796988845E0,1.797162813E0
1.472337362E1,-2.132029086E-2,-1.741766743E-2,-1.796047091E0,1.796258079E0
1.473329563E1,-2.684475109E-2,-2.209790796E-2,-1.794255853E0,1.794592718E0
1.474321863E1,-2.689523995E-2,-2.341643348E-2,-1.796052217E0,1.796406204E0
1.475314062E1,-2.877010591E-2,-2.919016406E-2,-1.795436740E0,1.795904472E0
1.476306363E1,-2.980702370E-2,-2.991029248E-2,-1.795777559E0,1.796273956E0
1.477298563E1,-2.979104407E-2,-3.448906541E-2,-1.795861721E0,1.796439902E0
1.478290862E1,-3.126362339E-2,-3.570851684E-2,-1.795423865E0,1.796051048E0
1.479283063E1,-3.116535395E-2,-3.634847701E-2,-1.796703339E0,1.797341197E0
1.480275363E1,-3.344573826E-2,-3.976345062E-2,-1.794253469E0,1.795005643E0
1.481267662E1,-3.436053544E-2,-3.414364904E-2,-1.792762876E0,1.793417175E0
1.482259863E1,-3.462810442E-2,-3.774983808E-2,-1.793915749E0,1.794647004E0
1.483252163E1,-3.533437476E-2,-3.235374019E-2,-1.794515014E0,1.795154427E0
1.484244362E1,-3.678728640E-2,-3.256918490E-2,-1.795763493E0,1.796435520E0
1.485236663E1,-3.745067865E-2,-2.897897735E-2,-1.793892384E0,1.794517266E0
1.486228863E1,-3.547587618E-2,-2.316363715E-2,-1.794309616E0,1.794809764E0
1.487221162E1,-3.746499121E-2,-1.908873394E-2,-1.793060064E0,1.793553010E0
1.488213363E1,-3.197570518E-2,-1.484405156E-2,-1.794441700E0,1.794787956E0
1.489205663E1,-3.842002153E-2,-7.578682154E-3,-1.792104244E0,1.792532052E0
1.490197862E1,-2.810903080E-2,1.262278296E-3,-1.793490410E0,1.793711114E0
1.491190163E1,-3.167047724E-2,4.551549442E-3,-1.791814327E0,1.792099975E0
1.492182363E1,-3.004880995E-2,1.195599977E-2,-1.792069674E0,1.792361457E0
1.493174662E1,-2.378452197E-2,1.536244806E-2,-1.794696331E0,1.794919672E0
1.494166863E1,-2.259450220E-2,1.719278097E-2,-1.793201208E0,1.793425961E0
1.495159163E1,-2.436390519E-2,1.888575032E-2,-1.791597009E0,1.791862191E0
1.496151462E1,-1.908033341E-2,2.166441828E-2,-1.791183114E0,1.791415740E0
1.497143663E1,-1.454470400E-2,2.422291785E-2,-1.791921616E0,1.792144351E0
1.498135963E1,-1.265400555E-2,2.709135041E-2,-1.791893125E0,1.792142582E0
1.499128162E1,-1.288357005E-2,2.547774091E-2,-1.792215586E0,1.792442972E0
1.500120463E1,-7.261273917E-3,2.755540237E-2,-1.792070746E0,1.792297293E0
1.501112663E1,-2.463056240E-3,2.865129337E-2,-1.789869905E0,1.790100902E0
1.502104963E1,1.131678466E-3,2.687469870E-2,-1.791141033E0,1.791342996E0
1.503097163E1,5.257447716E-3,2.697136998E-2,-1.790318608E0,1.790529479E0
1.504089463E1,9.066262282E-3,2.883771807E-2,-1.789522648E0,1.789777952E0
1.505081663E1,1.220666151E-2,2.194066346E-2,-1.790357232E0,1.790533276E0
1.506073962E1,1.556591410E-2,2.584552392E-2,-1.789971590E0,1.790225847E0
1.507066163E1,1.692678779E-2,1.714764163E-2,-1.788059711E0,1.788222047E0
1.508058463E1,2.103362046E-2,1.922537386E-2,-1.791108251E0,1.791334919E0
1.509050762E1,2.254363336E-2,1.665489003E-2,-1.788272023E0,1.788491663E0
1.510042963E1,2.518716641E-2,1.620587707E-2,-1.789809704E0,1.790060278E0
1.511035263E1,2.937338874E-2,1.283804420E-2,-1.787842989E0,1.788130354E0
1.512027462E1,3.317818791E-2,1.055318955E-2,-1.788051248E0,1.788390177E0
1.513019763E1,3.458380327E-2,6.749396212E-3,-1.790144444E0,1.790491196E0
1.514011963E1,3.797619790E-2,3.122565337E-3,-1.789309621E0,1.789715302E0
1.515004262E1,3.623368964E-2,2.920963801E-3,-1.786562800E0,1.786932582E0
1.515996463E1,4.498384148E-2,-4.988295957E-3,-1.787898302E0,1.788471070E0
1.516988763E1,4.669518769E-2,-6.114547141E-3,-1.788054466E0,1.788674538E0
1.517980962E1,4.271796346E-2,-1.176643558E-2,-1.788905621E0,1.789454272E0
1.518973263E1,4.381012544E-2,-1.459231600E-2,-1.787031531E0,1.787628025E0
1.519965463E1,4.434331879E-2,-1.776514202E-2,-1.786470652E0,1.787109207E0
1.520957762E1,4.581764713E-2,-2.002084069E-2,-1.788064003E0,1.788762972E0
1.521949963E1,4.142142832E-2,-2.132292837E-2,-1.786619186E0,1.787226488E0
1.522942263E1,4.200252891E-2,-2.096073888E-2,-1.788535357E0,1.789151275E0
1.523934562E1,4.089901596E-2,-2.495141327E-2,-1.784893990E0,1.785536854E0
1.524926763E1,4.146999866E-2,-2.111113444E-2,-1.786766291E0,1.787372154E0
1.525919063E1,3.864682838E-2,-1.788584888E-2,-1.784544945E0,1.785052980E0
1.526911262E1,3.319054469E-2,-1.835589670E-2,-1.785958529E0,1.786361222E0
1.527903563E1,3.258223832E-2,-1.848905347E-2,-1.784852028E0,1.785245140E0
1.528895763E1,2.471499704E-2,-1.570285484E-2,-1.787265539E0,1.787505390E0
1.529888062E1,2.236102894E-2,-1.749223284E-2,-1.786055207E0,1.786280828E0
1.530880263E1,1.639628783E-2,-1.534825005E-2,-1.785198450E0,1.785339719E0
1.531872563E1,1.191322040E-2,-1.539765764E-2,-1.788411498E0,1.788517458E0
1.532864762E1,7.747502998E-3,-1.373371482E-2,-1.786304235E0,1.786373830E0
1.533857063E1,7.500281208E-4,-1.232370548E-2,-1.785009861E0,1.785052559E0
1.534849263E1,-2.959489124E-3,-1.070130803E-2,-1.786167622E0,1.786202130E0
1.535841562E1,-1.062776614E-2,-1.012759749E-2,-1.784241557E0,1.784301951E0
1.536833863E1,-1.366510056E-2,-1.264242083E-2,-1.785008311E0,1.785105385E0
1.537826063E1,-2.236405946E-2,-9.363734163E-3,-1.785861254E0,1.786025825E0
1.538818363E1,-2.602910250E-2,-9.844700806E-3,-1.783472180E0,1.783689281E0
1.539810563E1,-3.418161720E-2,-1.327078883E-2,-1.784516692E0,1.784893364E0
1.540802863E1,-3.491958231E-2,-1.198501419E-2,-1.783785343E0,1.784167360E0
1.541795063E1,-3.877231479E-2,-1.054891013E-2,-1.783964634E0,1.784417100E0
1.542787362E1,-4.102748260E-2,-1.452820469E-2,-1.780335307E0,1.780867241E0
1.543779563E1,-3.973118588E-2,-1.555158105E-2,-1.782603741E0,1.783114274E0
1.544771863E1,-4.326653108E-2,-1.164046302E-2,-1.782262564E0,1.782825661E0
1.545764062E1,-5.065571517E-2,-1.286218874E-2,-1.781421304E0,1.782187784E0
1.546756363E1,-4.599811137E-2,-1.361240167E-2,-1.782925725E0,1.783570931E0
1.547748563E1,-4.666586965E-2,-1.376933791E-2,-1.783219695E0,1.783883342E0
1.548740862E1,-4.496517405E-2,-1.566391066E-2,-1.780343533E0,1.780980157E0
1.549733063E1,-4.160961136E-2,-1.596098766E-2,-1.781427979E0,1.781985342E0
1.550725363E1,-4.131586477E-2,-1.825530082E-2,-1.779780030E0,1.780353115E0
1.551717662E1,-3.760400042E-2,-1.481122989E-2,-1.780711055E0,1.781169642E0
1.552709863E1,-3.933904693E-2,-1.680780202E-2,-1.780578613E0,1.781092435E0
1.553702163E1,-3.172749653E-2,-2.000818774E-2,-1.781169057E0,1.781563968E0
1.554694362E1,-2.977966145E-2,-2.145321853E-2,-1.780959487E0,1.781337633E0
1.555686663E1,-2.516677976E-2,-2.285497636E-2,-1.781620741E0,1.781945056E0
1.556678863E1,-1.988919266E-2,-2.220596373E-2,-1.777490973E0,1.777740939E0
1.557671162E1,-1.575659029E-2,-2.145035006E-2,-1.781320333E0,1.781519160E0
1.558663363E1,-1.242018025E-2,-2.359765768E-2,-1.776878238E0,1.777078327E0
1.559655663E1,-8.772293106E-3,-2.050706744E-2,-1.779431105E0,1.779570889E0
1.560647862E1,-2.915469231E-3,-2.483789995E-2,-1.778867841E0,1.779043624E0
1.561640163E1,8.931726916E-5,-2.118337527E-2,-1.778627872E0,1.778754017E0
1.562632363E1,4.410296213E-3,-2.346570417E-2,-1.776454210E0,1.776614660E0
1.563624662E1,7.568102796E-3,-2.135022543E-2,-1.777998805E0,1.778143093E0
1.564616963E1,1.027094573E-2,-2.461446077E-2,-1.777971387E0,1.778171425E0
1.565609163E1,1.402041968E-2,-2.469069511E-2,-1.778338671E0,1.778565329E0
1.566601462E1,1.735602878E-2,-2.321983129E-2,-1.780132055E0,1.780368087E0
1.567593663E1,2.197412029E-2,-2.359120920E-2,-1.778390884E0,1.778683093E0
1.568585963E1,2.012828179E-2,-2.052191459E-2,-1.776330709E0,1.776563279E0
1.569578167E1,2.418869548E-2,-2.466212213E-2,-1.777016997E0,1.777352729E0
1.570570467E1,2.655571327E-2,-2.017602883E-2,-1.777226806E0,1.777539703E0
1.571562667E1,2.778011560E-2,-1.858500019E-2,-1.774976492E0,1.775291155E0
1.572554967E1,2.977029607E-2,-1.617270894E-2,-1.776581287E0,1.776904302E0
1.573547167E1,2.596348710E-2,-1.445782650E-2,-1.776043773E0,1.776292379E0
1.574539467E1,2.663034201E-2,-1.201544143E-2,-1.776719213E0,1.776959399E0
1.575531667E1,2.481822483E-2,-9.459944442E-3,-1.775006294E0,1.775204996E0
1.576523967E1,2.985159867E-2,-4.888894968E-3,-1.776701093E0,1.776958579E0
1.577516167E1,2.755074017E-2,-1.471787691E-3,-1.776863337E0,1.777077524E0
1.578508467E1,2.095222473E-2,-2.415612340E-3,-1.776791096E0,1.776916269E0
1.579500667E1,1.937988587E-2,2.149379812E-3,-1.775767446E0,1.775874495E0
1.580492967E1,1.213369053E-2,4.040756263E-3,-1.773717046E0,1.773763150E0
1.581485267E1,1.104671787E-2,1.744992100E-3,-1.776223540E0,1.776258748E0
1.582477467E1,8.624039590E-3,8.849508129E-3,-1.776161790E0,1.776204772E0
1.583469767E1,4.454780836E-3,1.459266338E-2,-1.773507118E0,1.773572747E0
1.584461967E1,-3.665996250E-3,5.570405163E-3,-1.775170803E0,1.775183328E0
1.585454267E1,-3.538726596E-3,1.413133834E-2,-1.772670984E0,1.772730841E0
1.586446467E1,-1.007092744E-2,1.494573336E-2,-1.773590207E0,1.773681770E0
1.587438767E1,-9.226855822E-3,1.709969342E-2,-1.774451852E0,1.774558229E0
1.588430967E1,-1.207803562E-2,1.896923408E-2,-1.772613645E0,1.772756284E0
1.589423267E1,-1.529491693E-2,2.296404168E-2,-1.772500992E0,1.772715727E0
1.590415467E1,-1.753596589E-2,2.321517467E-2,-1.772299409E0,1.772538194E0
1.591407767E1,-1.957271248E-2,2.263673767E-2,-1.771858454E0,1.772111140E0
1.592399967E1,-2.463218570E-2,2.578566223E-2,-1.772108436E0,1.772467194E0
1.593392267E1,-2.485048957E-2,2.727197111E-2,-1.772954226E0,1.773338093E0
1.594384567E1,-2.337296680E-2,2.911328152E-2,-1.769590020E0,1.769983819E0
1.595376767E1,-2.773190849E-2,2.629532292E-2,-1.770967603E0,1.771379901E0
1.596369067E1,-2.588101104E-2,2.942693606E-2,-1.773918629E0,1.774351451E0
1.597361267E1,-2.385430597E-2,2.814222872E-2,-1.769979000E0,1.770363430E0
1.598353567E1,-2.229049802E-2,2.435174957E-2,-1.768661499E0,1.768969579E0
1.599345767E1,-2.122469246E-2,2.603506669E-2,-1.771182775E0,1.771501266E0
1.600338067E1,-1.810266823E-2,2.405953407E-2,-1.769461870E0,1.769718022E0
1.601330267E1,-1.222644188E-2,2.057186142E-2,-1.768837333E0,1.768999208E0
1.602322567E1,-9.354222566E-3,2.457911894E-2,-1.769638896E0,1.769834302E0
1.603314767E1,-6.936475169E-3,2.277390286E-2,-1.768523097E0,1.768683327E0
1.604307067E1,-3.761454485E-3,2.118000016E-2,-1.767755866E0,1.767886745E0
1.605299267E1,-3.228239366E-4,2.451912686E-2,-1.768932343E0,1.769102293E0
