"Time (s)","Acceleration x (m/s^2)","Acceleration y (m/s^2)","Acceleration z (m/s^2)","Absolute acceleration (m/s^2)"
1.654583350E-3,8.113128662E-2,5.538482666E-2,9.836195526E0,9.836686037E0
1.164858334E-2,7.439529419E-2,4.864883423E-2,9.836943970E0,9.837345579E0
2.164258334E-2,5.119354248E-2,7.334747314E-2,9.818681946E0,9.819089356E0
3.163658336E-2,2.963836670E-2,8.951385498E-2,9.858199768E0,9.858650710E0
4.163058335E-2,4.236190796E-2,7.664062500E-2,9.828711090E0,9.829101180E0
5.162458334E-2,6.571334839E-2,8.996292114E-2,9.855655060E0,9.856284707E0
6.161858334E-2,6.930587769E-2,1.002914429E-1,9.830507355E0,9.831263221E0
7.161258336E-2,5.912704468E-2,8.232879639E-2,9.846673737E0,9.847195424E0
8.160658335E-2,6.900650024E-2,6.870712280E-2,9.845476227E0,9.845957785E0
9.160058334E-2,7.903564453E-2,6.691085815E-2,9.829309845E0,9.829855326E0
1.015945833E-1,7.574249268E-2,8.322692871E-2,9.836345215E0,9.836988911E0
1.115885834E-1,8.352630615E-2,8.652008057E-2,9.844129028E0,9.844863569E0
1.215825833E-1,7.993377686E-2,7.409591675E-2,9.837542725E0,9.838146496E0
1.315765833E-1,6.227050781E-2,6.271957397E-2,9.825717316E0,9.826114803E0
1.415705833E-1,6.047424316E-2,7.694000244E-2,9.850415955E0,9.850902059E0
1.515645834E-1,5.388793945E-2,7.379653931E-2,9.842931519E0,9.843355664E0
1.615585833E-1,5.014572144E-2,5.493576050E-2,9.823471985E0,9.823753578E0
1.715525833E-1,4.834945679E-2,6.885681152E-2,9.846973114E0,9.847332554E0
1.815455834E-1,3.817062378E-2,1.059796143E-1,9.833052063E0,9.833697247E0
1.915395833E-1,3.472778320E-2,9.729766846E-2,9.871222687E0,9.871763276E0
2.015335833E-1,4.580474854E-2,6.152206421E-2,9.837842102E0,9.838141098E0
2.115275833E-1,6.780899048E-2,6.706054688E-2,9.834399261E0,9.834861667E0
2.215215834E-1,6.601272583E-2,9.250762939E-2,9.856852570E0,9.857507693E0
2.315155833E-1,4.610412598E-2,8.996292114E-2,9.855505371E0,9.856023794E0
2.415095833E-1,5.179229736E-2,8.083190918E-2,9.837393036E0,9.837861454E0
2.515035833E-1,6.167175293E-2,7.903564453E-2,9.829758911E0,9.830270103E0
2.614975834E-1,7.364685059E-2,8.232879639E-2,9.846524048E0,9.847143632E0
2.714915833E-1,6.571334839E-2,9.475296021E-2,9.832752686E0,9.833428789E0
2.814855833E-1,8.098159790E-2,7.065307617E-2,9.856253815E0,9.856839713E0
2.914795833E-1,7.454498291E-2,5.882766724E-2,9.828561401E0,9.829020138E0
3.014735834E-1,5.239105225E-2,9.190887451E-2,9.853409729E0,9.853977641E0
3.114675833E-1,5.613327026E-2,8.846603394E-2,9.854607239E0,9.855164180E0
3.214615833E-1,6.900650024E-2,6.990463257E-2,9.853260040E0,9.853749640E0
3.314555833E-1,7.454498291E-2,6.706054688E-2,9.834698639E0,9.835209779E0
3.414485833E-1,7.888595581E-2,5.403762817E-2,9.841135254E0,9.841599776E0
3.514425833E-1,3.996688843E-2,8.083190918E-2,9.843081207E0,9.843494237E0
3.614365833E-1,3.008743286E-2,8.622070312E-2,9.878258057E0,9.878680150E0
3.714305834E-1,5.224136353E-2,8.038284302E-2,9.824220428E0,9.824688168E0
3.814245833E-1,3.427871704E-2,7.574249268E-2,9.840686188E0,9.841037374E0
3.914185833E-1,6.331832886E-2,9.430389404E-2,9.824968872E0,9.825625465E0
4.014125833E-1,6.182144165E-2,1.094224548E-1,9.847571869E0,9.848373819E0
4.114065834E-1,5.388793945E-2,9.939331055E-2,9.844278717E0,9.844927953E0
4.214005833E-1,5.972579956E-2,8.397537231E-2,9.843530273E0,9.844069650E0
4.313945833E-1,6.436614990E-2,9.654922485E-2,9.851763153E0,9.852446497E0
4.413885833E-1,8.756790161E-2,8.996292114E-2,9.848320312E0,9.849120491E0
4.513825834E-1,8.831634521E-2,6.496490479E-2,9.847721558E0,9.848331843E0
4.613765833E-1,5.598358154E-2,6.750961304E-2,9.846524048E0,9.846914620E0
4.713705833E-1,2.559677124E-2,8.202941895E-2,9.847721558E0,9.848096461E0
4.813645833E-1,5.239105225E-2,5.763015747E-2,9.850266266E0,9.850574174E0
4.913585834E-1,6.511459351E-2,5.613327026E-2,9.818232880E0,9.818609257E0
5.013525833E-1,7.259902954E-2,6.526428223E-2,9.867031403E0,9.867514314E0
5.113465833E-1,6.017486572E-2,8.442443848E-2,9.816885681E0,9.817433115E0
5.213395834E-1,4.385879517E-2,9.086105347E-2,9.850116577E0,9.850633274E0
5.313335833E-1,7.259902954E-2,6.032455444E-2,9.820029144E0,9.820482782E0
5.413275833E-1,7.155120850E-2,6.406677246E-2,9.853260040E0,9.853728104E0
5.513215833E-1,5.568420410E-2,7.843688965E-2,9.844278717E0,9.844748678E0
5.613155834E-1,5.538482666E-2,9.131011963E-2,9.833052063E0,9.833631979E0
5.713095833E-1,2.110610962E-2,8.861572266E-2,9.852511597E0,9.852932709E0
5.813035833E-1,4.385879517E-2,7.768844604E-2,9.828860779E0,9.829265654E0
5.912975833E-1,1.901046753E-2,8.622070312E-2,9.838889923E0,9.839286068E0
6.012915834E-1,3.233276367E-2,8.502319336E-2,9.841434631E0,9.841855006E0
6.112855833E-1,7.813751221E-2,9.759704590E-2,9.823322296E0,9.824117853E0
6.212795833E-1,7.394622803E-2,1.038839722E-1,9.835447083E0,9.836273646E0
6.312735833E-1,5.792953491E-2,9.295669556E-2,9.811646576E0,9.812257911E0
6.412675834E-1,4.595443726E-2,8.382568359E-2,9.882149963E0,9.882612329E0
6.512615833E-1,5.149291992E-2,8.427474976E-2,9.811347198E0,9.811844251E0
6.612555833E-1,1.068777466E-1,9.205856323E-2,9.868079224E0,9.869087354E0
6.712495833E-1,1.145118713E-1,1.435514832E-1,9.809401245E0,9.811119854E0
6.812425833E-1,6.631210327E-2,1.416055298E-1,9.887688446E0,9.888924726E0
6.912365833E-1,4.909790039E-2,8.966354370E-2,9.826166382E0,9.826698119E0
7.012305833E-1,3.577560425E-2,7.065307617E-2,9.847422180E0,9.847740621E0
7.112245834E-1,4.595443726E-2,9.415420532E-2,9.817484436E0,9.818043465E0
7.212185833E-1,7.185058594E-2,1.212478638E-1,9.840386810E0,9.841396046E0
7.312125833E-1,3.517684937E-2,5.433700562E-2,9.860145721E0,9.860358187E0
7.412065833E-1,7.723937988E-2,1.496887207E-3,9.872719574E0,9.873021825E0
7.512005834E-1,1.119671631E-1,4.730163574E-2,9.810149689E0,9.810902660E0
7.611945833E-1,1.326242065E-1,2.978805542E-2,9.836045837E0,9.836985017E0
7.711885833E-1,1.002914429E-1,1.766326904E-2,9.769584045E0,9.770114778E0
7.811825833E-1,2.739303589E-2,3.577560425E-2,9.931098175E0,9.931200392E0
7.911761667E-1,2.155517578E-2,3.562591553E-2,9.728719025E0,9.728808133E0
8.011701667E-1,1.646575928E-3,2.814147949E-2,9.893376617E0,9.893416778E0
8.111641667E-1,2.335144043E-2,-4.490661621E-3,9.790241089E0,9.790269967E0
8.211581667E-1,6.481521606E-2,1.347198486E-2,9.870174866E0,9.870396871E0
8.311521667E-1,5.313949585E-2,6.017486572E-2,9.845326538E0,9.845653836E0
8.411461667E-1,6.960525513E-2,6.601272583E-2,9.828411713E0,9.828879863E0
8.511401667E-1,8.337661743E-2,5.703140259E-2,9.845625916E0,9.846144114E0
8.611341667E-1,9.101074219E-2,4.969665527E-2,9.838740234E0,9.839286667E0
8.711271667E-1,1.007405090E-1,1.378633118E-1,9.868228912E0,9.869706014E0
8.811211667E-1,7.649093628E-2,2.501298523E-1,9.810898132E0,9.814384238E0
8.911151667E-1,4.969665527E-2,2.517764282E-1,9.829010468E0,9.832360240E0
9.011091667E-1,4.625381470E-2,1.916015625E-1,9.831854553E0,9.833830105E0
9.111031667E-1,4.326004028E-2,1.336720276E-1,9.812993774E0,9.813999514E0
9.210971667E-1,6.885681152E-3,1.053808594E-1,9.848470001E0,9.849036192E0
9.310911667E-1,3.233276367E-2,9.819580078E-2,9.850116577E0,9.850659085E0
9.410851667E-1,4.490661621E-2,6.855743408E-2,9.836195526E0,9.836536949E0
9.510791667E-1,7.454498291E-2,4.610412598E-2,9.852810974E0,9.853200832E0
9.610731667E-1,7.304809570E-2,3.263214111E-2,9.873318329E0,9.873642474E0
9.710671667E-1,3.233276367E-2,7.813751221E-2,9.841434631E0,9.841797929E0
9.810611667E-1,4.146377563E-2,9.490264893E-2,9.880503387E0,9.881046146E0
9.910551667E-1,5.269042969E-2,5.014572144E-2,9.799671478E0,9.799941426E0
1.001049167E0,8.143066406E-2,1.631607056E-2,9.886041870E0,9.886390698E0
1.011043167E0,8.532257080E-2,2.709365845E-2,9.808353424E0,9.808761945E0
1.021037167E0,3.652404785E-2,2.005828857E-2,9.828561401E0,9.828649732E0
1.031031167E0,1.362167358E-2,-8.981323242E-4,9.812544708E0,9.812554204E0
1.041024167E0,6.301895142E-2,-1.496887207E-2,9.844578094E0,9.844791177E0
1.051018167E0,1.133143616E-1,1.781295776E-2,9.845476227E0,9.846144402E0
1.061012167E0,1.523831177E-1,7.963439941E-2,9.879904633E0,9.881400599E0
1.071006167E0,1.052311707E-1,1.115180969E-1,9.802515564E0,9.803714667E0
1.081000167E0,2.859054565E-2,1.686991882E-1,9.853858795E0,9.855344235E0
1.090994167E0,3.817062378E-2,1.883084106E-1,9.839788055E0,9.841663784E0
1.100988167E0,2.903961182E-2,1.724414062E-1,9.865384827E0,9.866934535E0
1.110982167E0,6.810836792E-2,1.143621826E-1,9.870923309E0,9.871820726E0
1.120976167E0,7.155120850E-2,1.139131165E-1,9.783355408E0,9.784280189E0
1.130970167E0,1.930984497E-2,1.210981750E-1,9.842033386E0,9.842797306E0
1.140964167E0,-7.484436035E-3,9.535171509E-2,9.818532257E0,9.818998098E0
1.150958167E0,8.232879639E-3,5.478607178E-2,9.882149963E0,9.882305257E0
1.160952167E0,3.008743286E-2,3.158432007E-2,9.831704865E0,9.831801634E0
1.170946167E0,8.262817383E-2,1.930984497E-2,9.824968872E0,9.825335293E0
1.180940167E0,9.804611206E-2,4.071533203E-2,9.857750702E0,9.858322356E0
1.190934167E0,1.017883301E-1,6.376739502E-2,9.857301636E0,9.858033408E0
1.200928167E0,7.155120850E-2,8.936416626E-2,9.840686188E0,9.841352050E0
1.210922167E0,6.616241455E-2,5.224136353E-2,9.860894165E0,9.861254502E0
1.220915167E0,8.442443848E-2,4.445755005E-2,9.826316071E0,9.826779303E0
1.230909167E0,9.430389404E-2,7.753875732E-2,9.841584320E0,9.842341561E0
1.240903167E0,7.065307617E-2,8.951385498E-2,9.814939728E0,9.815602195E0
1.250897167E0,4.520599365E-2,9.879455566E-2,9.848170624E0,9.848769902E0
1.260891167E0,5.089416504E-2,8.831634521E-2,9.862840118E0,9.863366829E0
1.270885167E0,5.628295898E-2,9.101074219E-2,9.806407471E0,9.806991292E0
1.280879167E0,3.697311401E-2,1.019380188E-1,9.857151947E0,9.857748368E0
1.290873167E0,3.906875610E-2,1.255888367E-1,9.826615448E0,9.827495616E0
1.300867167E0,3.233276367E-2,1.221459961E-1,9.854607239E0,9.855417235E0
1.310861167E0,5.568420410E-2,6.855743408E-2,9.852511597E0,9.852907470E0
1.320855167E0,3.173400879E-2,6.227050781E-2,9.825867004E0,9.826115563E0
1.330849167E0,3.921844482E-2,9.580078125E-2,9.872569885E0,9.873112580E0
1.340843167E0,4.296066284E-2,7.948471069E-2,9.788594513E0,9.789011491E0
1.350837167E0,6.735992432E-2,3.532653809E-2,9.898016968E0,9.898309210E0
1.360831167E0,8.577163696E-2,4.296066284E-2,9.794731750E0,9.795201502E0
1.370825167E0,5.972579956E-2,7.783813477E-2,9.855205994E0,9.855694350E0
1.380819167E0,2.993774414E-2,9.565109253E-2,9.811646576E0,9.812158475E0
1.390813167E0,5.987548828E-2,4.745132446E-2,9.876910858E0,9.877206326E0
1.400806167E0,1.065783691E-1,6.855743408E-2,9.810299377E0,9.811117823E0
1.410800167E0,8.756790161E-2,9.954299927E-2,9.836794281E0,9.837687669E0
1.420794167E0,3.727249146E-2,1.007405090E-1,9.803563385E0,9.804151821E0
1.430788167E0,2.140548706E-2,8.053253174E-2,9.864935760E0,9.865287692E0
1.440782167E0,7.185058594E-2,4.775070190E-2,9.856403503E0,9.856781050E0
1.450776167E0,1.194515991E-1,6.526428223E-2,9.873468018E0,9.874406251E0
1.460770167E0,8.936416626E-2,8.936416626E-2,9.834848328E0,9.835660300E0
1.470764167E0,3.592529297E-2,1.166075134E-1,9.823621674E0,9.824379407E0
1.480758167E0,-1.137634277E-2,1.260379028E-1,9.851613464E0,9.852426241E0
1.490752167E0,-1.916015625E-2,9.325607300E-2,9.876461792E0,9.876920640E0
1.500746167E0,4.146377563E-2,5.418731689E-2,9.840835876E0,9.841072414E0
1.510740167E0,6.750961304E-2,7.050338745E-2,9.861492920E0,9.861976013E0
1.520734167E0,5.897735596E-2,1.098715210E-1,9.773775330E0,9.774570797E0
1.530728167E0,4.610412598E-2,1.411564636E-1,9.851164398E0,9.852283529E0
1.540722167E0,7.634124756E-2,7.349716187E-2,9.837842102E0,9.838412832E0
1.550716167E0,9.430389404E-2,3.278182983E-2,9.895921326E0,9.896424948E0
1.560710167E0,1.414558411E-1,7.334747314E-3,9.798773346E0,9.799797071E0
1.570703167E0,8.726852417E-2,7.095245361E-2,9.820627899E0,9.821271933E0
1.580697167E0,6.691085815E-2,1.074765015E-1,9.809251556E0,9.810068520E0
1.590691167E0,5.703140259E-2,7.903564453E-2,9.911638641E0,9.912117825E0
1.600685167E0,2.544708252E-2,3.906875610E-2,9.842781830E0,9.842892261E0
1.610679167E0,1.841171265E-2,3.532653809E-2,9.854158173E0,9.854238694E0
1.620673167E0,-5.688171387E-3,9.265731812E-2,9.785600739E0,9.786041056E0
1.630667167E0,2.694396973E-2,1.115180969E-1,9.908495178E0,9.909159347E0
1.640661167E0,5.733078003E-2,1.023870850E-1,9.831106110E0,9.831806409E0
1.650655167E0,6.810836792E-2,1.037342834E-1,9.875563660E0,9.876343309E0
1.660649167E0,6.047424316E-2,1.128652954E-1,9.785600739E0,9.786438449E0
1.670643167E0,7.589218140E-2,1.131646729E-1,9.836494904E0,9.837438582E0
1.680637167E0,7.364685059E-2,8.322692871E-2,9.831555176E0,9.832183265E0
1.690631167E0,1.008901978E-1,5.942642212E-2,9.839488678E0,9.840185353E0
1.700625167E0,1.010398865E-1,7.918533325E-2,9.847871246E0,9.848707908E0
1.710619167E0,4.730163574E-2,1.098715210E-1,9.777517548E0,9.778249260E0
1.720613167E0,1.975891113E-2,8.696914673E-2,9.866732025E0,9.867135091E0
1.730607167E0,1.496887207E-3,8.277786255E-2,9.779164124E0,9.779514577E0
1.740601167E0,5.313949585E-2,6.271957397E-2,9.948013000E0,9.948352638E0
1.750594167E0,1.155596924E-1,4.580474854E-2,9.784702606E0,9.785492180E0
1.760588167E0,7.244934082E-2,7.409591675E-2,9.905501404E0,9.906043467E0
1.770582167E0,6.301895142E-2,8.861572266E-2,9.783355408E0,9.783959688E0
1.780576167E0,-5.987548828E-4,8.607101440E-2,9.911189575E0,9.911563316E0
1.790570208E0,5.149291992E-2,4.625381470E-2,9.829010468E0,9.829254179E0
1.800564208E0,9.804611206E-2,3.667373657E-2,9.829010468E0,9.829567883E0
1.810558208E0,1.008901978E-1,5.269042969E-2,9.808353424E0,9.809013814E0
1.820552208E0,4.475692749E-2,8.846603394E-2,9.839189301E0,9.839688791E0
1.830546208E0,2.544708252E-2,1.169068909E-1,9.851463776E0,9.852190279E0
1.840540208E0,2.739303589E-2,9.535171509E-2,9.867779846E0,9.868278544E0
1.850534208E0,8.442443848E-2,7.888595581E-2,9.822723541E0,9.823403089E0
1.860528208E0,1.022373962E-1,9.744735718E-2,9.848170624E0,9.849183373E0
1.870522208E0,5.718109131E-2,9.984237671E-2,9.848170624E0,9.848842714E0
1.880516208E0,4.655319214E-2,1.100212097E-1,9.847422180E0,9.848146803E0
1.890510208E0,4.700225830E-2,8.532257080E-2,9.842632141E0,9.843114173E0
1.900504208E0,4.340972900E-2,6.376739502E-2,9.815837860E0,9.816140972E0
1.910498208E0,6.825805664E-2,7.304809570E-2,9.826316071E0,9.826824650E0
1.920491208E0,3.861968994E-2,9.699829102E-2,9.780062256E0,9.780619504E0
1.930485208E0,6.182144165E-2,6.706054688E-2,9.857900391E0,9.858322328E0
1.940479208E0,7.200027466E-2,5.119354248E-2,9.768685913E0,9.769085386E0
1.950473208E0,1.269360352E-1,5.673202515E-2,9.918973389E0,9.919947801E0
1.960467208E0,7.574249268E-2,1.209484863E-1,9.752669220E0,9.753713261E0
1.970461208E0,7.065307617E-2,1.336720276E-1,9.954000549E0,9.955148769E0
1.980455208E0,4.939727783E-2,9.969268799E-2,9.776020660E0,9.776653757E0
1.990449208E0,7.559280396E-2,6.691085815E-2,9.957742767E0,9.958254483E0
2.000443208E0,8.816665649E-2,6.960525513E-2,9.743538208E0,9.744185705E0
2.010437208E0,2.260299683E-2,8.472381592E-2,9.909542999E0,9.909930952E0
2.020431208E0,-5.688171387E-3,8.696914673E-2,9.839488678E0,9.839874665E0
2.030425208E0,1.496887207E-4,7.409591675E-2,9.877210236E0,9.877488156E0
2.040419208E0,3.742218018E-3,6.885681152E-2,9.849667511E0,9.849908900E0
2.050413208E0,5.448669434E-2,4.326004028E-2,9.805958405E0,9.806205202E0
2.060407208E0,5.957611084E-2,4.146377563E-2,9.854607239E0,9.854874550E0
2.070401208E0,4.116439819E-2,3.787124634E-2,9.831854553E0,9.832013664E0
2.080395208E0,7.484436035E-2,7.664062500E-2,9.826166382E0,9.826750288E0
2.090389208E0,3.068618774E-2,1.287322998E-1,9.809700623E0,9.810593252E0
2.100382208E0,7.020401001E-2,9.535171509E-2,9.849068756E0,9.849780501E0
2.110376208E0,8.023315430E-2,9.190887451E-2,9.817783813E0,9.818541827E0
2.120370208E0,9.714797974E-2,7.828720093E-2,9.876761169E0,9.877549181E0
2.130364208E0,9.310638428E-2,1.392105103E-1,9.771230621E0,9.772665768E0
2.140358208E0,9.026229858E-2,1.414558411E-1,9.918075256E0,9.919494636E0
2.150352208E0,5.553451538E-2,6.795867920E-2,9.761650543E0,9.762045062E0
2.160346208E0,6.481521606E-2,3.981719971E-2,9.918524323E0,9.918816016E0
2.170340208E0,4.745132446E-2,6.825805664E-2,9.765392761E0,9.765746596E0
2.180334208E0,6.391708374E-2,8.128097534E-2,9.877958679E0,9.878499869E0
2.190328208E0,5.553451538E-2,2.769241333E-2,9.836195526E0,9.836391278E0
2.200322208E0,3.966751099E-2,1.227447510E-2,9.838440857E0,9.838528481E0
2.210316208E0,5.643264771E-2,6.900650024E-2,9.863139496E0,9.863542328E0
2.220310208E0,6.197113037E-2,1.044827271E-1,9.801018677E0,9.801771481E0
2.230304208E0,6.706054688E-2,1.170565796E-1,9.828112335E0,9.829038174E0
2.240298208E0,6.421646118E-2,1.085243225E-1,9.841584320E0,9.842392149E0
2.250292208E0,6.900650024E-2,8.562194824E-2,9.886341248E0,9.886952831E0
2.260286208E0,2.874023438E-2,5.927673340E-2,9.889185333E0,9.889404749E0
2.270279208E0,2.035766602E-2,6.870712280E-2,9.790241089E0,9.790503342E0
2.280273208E0,-1.811233521E-2,1.166075134E-1,9.835746460E0,9.836454330E0
2.290267208E0,1.377136230E-2,1.432521057E-1,9.833950195E0,9.835003165E0
2.300261208E0,6.541397095E-2,1.017883301E-1,9.864037628E0,9.864779682E0
2.310255208E0,1.059796143E-1,-8.981323242E-3,9.847871246E0,9.848445584E0
2.320249208E0,1.167572021E-1,-2.499801636E-2,9.836644592E0,9.837369261E0
2.330243208E0,9.250762939E-2,7.080276489E-2,9.838590546E0,9.839280188E0
2.340237208E0,2.080673218E-2,1.182540894E-1,9.739346924E0,9.740087035E0
2.350231208E0,6.526428223E-2,1.058299255E-1,9.992620239E0,9.993393750E0
2.360225208E0,1.368154907E-1,5.583389282E-2,9.719887390E0,9.721010584E0
2.370219208E0,1.017883301E-1,1.013392639E-1,9.968819733E0,9.969854431E0
2.380213208E0,5.328918457E-2,1.185534668E-1,9.725276184E0,9.726144741E0
2.390207208E0,2.544708252E-2,1.387614441E-1,9.879754944E0,9.880762119E0
2.400201208E0,6.586303711E-3,1.161584473E-1,9.849218445E0,9.849905590E0
2.410195208E0,6.795867920E-2,7.753875732E-2,9.842781830E0,9.843321837E0
2.420189208E0,5.463638306E-2,6.331832886E-2,9.832153931E0,9.832509612E0
2.430183208E0,4.535568237E-2,8.831634521E-3,9.884245605E0,9.884353612E0
2.440176208E0,5.583389282E-2,-1.062789917E-2,9.828561401E0,9.828725736E0
2.450170208E0,7.604187012E-2,7.200027466E-2,9.886341248E0,9.886895856E0
2.460164208E0,7.499404907E-2,1.043330383E-1,9.726773071E0,9.727621697E0
2.470158208E0,5.628295898E-2,1.360670471E-1,9.950408020E0,9.951497464E0
2.480152208E0,6.376739502E-2,1.061293030E-1,9.775571594E0,9.776355645E0
2.490146208E0,2.574645996E-2,8.382568359E-2,9.884694672E0,9.885083630E0
2.500140208E0,3.113525391E-2,5.149291992E-2,9.791588287E0,9.791773185E0
2.510134208E0,3.278182983E-2,7.858657837E-2,9.859247589E0,9.859615283E0
2.520128208E0,5.179229736E-2,9.340576172E-2,9.851314087E0,9.851893032E0
2.530122208E0,4.565505981E-2,5.463638306E-2,9.795180817E0,9.795439589E0
2.540116208E0,4.894821167E-2,5.284011841E-2,9.905950470E0,9.906212330E0
2.550110208E0,9.235794067E-2,4.775070190E-2,9.830507355E0,9.831057164E0
2.560104208E0,1.086740112E-1,7.110214233E-2,9.870773621E0,9.871627901E0
2.570098208E0,9.969268799E-2,1.017883301E-1,9.819729767E0,9.820763320E0
2.580092208E0,6.750961304E-2,1.121168518E-1,9.790540466E0,9.791415136E0
2.590086208E0,4.296066284E-2,1.130149841E-1,9.889784088E0,9.890523106E0
2.600080208E0,6.212081909E-2,7.723937988E-2,9.803413696E0,9.803914780E0
2.610073208E0,5.328918457E-2,4.565505981E-2,9.863887939E0,9.864137540E0
2.620067208E0,4.355941772E-2,4.370910645E-2,9.825417938E0,9.825611715E0
2.630061208E0,4.266128540E-2,8.158035278E-2,9.846823425E0,9.847253775E0
2.640055208E0,5.763015747E-2,9.131011963E-2,9.882299652E0,9.882889516E0
2.650049208E0,7.185058594E-2,6.586303711E-2,9.807904358E0,9.808388672E0
2.660043208E0,5.433700562E-2,6.945556641E-2,9.896969147E0,9.897362016E0
2.670037208E0,6.227050781E-2,8.382568359E-2,9.825717316E0,9.826272189E0
2.680031208E0,6.286926270E-2,9.699829102E-2,9.846823425E0,9.847501855E0
2.690025208E0,4.236190796E-2,7.379653931E-2,9.822873230E0,9.823241774E0
2.700019208E0,4.221221924E-2,4.206253052E-2,9.820927277E0,9.821108069E0
2.710013208E0,4.206253052E-2,5.433700562E-2,9.856104126E0,9.856343658E0
2.720007208E0,5.194198608E-2,6.047424316E-2,9.821825409E0,9.822148923E0
2.730001208E0,6.466552734E-2,8.891510010E-2,9.859846344E0,9.860459292E0
2.739995208E0,6.706054688E-2,9.400451660E-2,9.835596771E0,9.836274590E0
2.749989208E0,5.748046875E-2,9.624984741E-2,9.840087433E0,9.840726026E0
2.759983208E0,8.247848511E-2,1.041833496E-1,9.865684204E0,9.866579026E0
2.769977208E0,6.436614990E-2,1.058299255E-1,9.830507355E0,9.831287699E0
2.779970208E0,5.927673340E-2,1.065783691E-1,9.859097900E0,9.859852133E0
2.789963958E0,8.322692871E-2,9.654922485E-2,9.812245331E0,9.813073265E0
2.799957958E0,4.939727783E-2,5.777984619E-2,9.864187317E0,9.864480221E0
2.809951958E0,6.750961304E-2,5.493576050E-2,9.809850311E0,9.810236420E0
2.819945958E0,5.837860107E-2,5.239105225E-2,9.821675720E0,9.821988945E0
2.829939958E0,3.293151855E-2,6.062393188E-2,9.838141479E0,9.838383379E0
2.839933958E0,4.400848389E-2,6.691085815E-2,9.854607239E0,9.854932655E0
2.849927958E0,5.388793945E-2,8.442443848E-2,9.853110352E0,9.853619386E0
2.859921958E0,6.331832886E-2,8.981323242E-2,9.829758911E0,9.830373130E0
2.869915958E0,6.900650024E-2,9.610015869E-2,9.827363892E0,9.828076017E0
2.879909958E0,3.966751099E-2,9.834548950E-2,9.851763153E0,9.852333864E0
2.889903958E0,5.104385376E-2,7.379653931E-2,9.823771362E0,9.824181146E0
2.899897958E0,7.155120850E-2,7.185058594E-2,9.867779846E0,9.868300825E0
2.909891958E0,8.143066406E-2,7.349716187E-2,9.844578094E0,9.845189213E0
2.919885958E0,8.053253174E-2,6.346801758E-2,9.846374359E0,9.846908230E0
2.929879958E0,6.197113037E-2,7.379653931E-2,9.836794281E0,9.837266291E0
2.939873958E0,3.772155762E-2,9.250762939E-2,9.824220428E0,9.824728373E0
2.949866958E0,3.682342529E-2,8.861572266E-2,9.854158173E0,9.854625412E0
2.959860958E0,2.993774414E-2,7.095245361E-2,9.823172607E0,9.823474467E0
2.969854958E0,5.433700562E-2,8.951385498E-2,9.839788055E0,9.840345228E0
2.979848958E0,7.080276489E-2,1.172062683E-1,9.832453308E0,9.833406754E0
2.989842958E0,5.703140259E-2,9.490264893E-2,9.842931519E0,9.843554235E0
2.999836958E0,5.074447632E-2,5.942642212E-2,9.857301636E0,9.857611376E0
3.009830958E0,7.768844604E-2,4.460723877E-2,9.838590546E0,9.838998385E0
3.019824958E0,8.846603394E-2,7.095245361E-2,9.850266266E0,9.850919043E0
3.029818958E0,7.828720093E-2,9.924362183E-2,9.833950195E0,9.834762561E0
3.039812958E0,3.098556519E-2,9.475296021E-2,9.838889923E0,9.839394958E0
3.049806958E0,2.499801636E-2,7.005432129E-2,9.839338989E0,9.839620128E0
3.059800958E0,5.134323120E-2,7.289840698E-2,9.847122803E0,9.847526481E0
3.069794958E0,6.885681152E-2,6.750961304E-2,9.833950195E0,9.834422975E0
3.079788958E0,4.999603271E-2,8.397537231E-2,9.829908600E0,9.830394425E0
3.089782958E0,4.071533203E-2,8.128097534E-2,9.862241364E0,9.862660343E0
3.099776958E0,4.969665527E-2,9.385482788E-2,9.931098175E0,9.931665996E0
3.109769958E0,7.679031372E-2,7.873626709E-2,9.913734283E0,9.914344335E0
3.119763958E0,8.652008057E-2,9.220825195E-2,1.015308655E1,1.015387387E1
3.129757958E0,5.164260864E-2,8.472381592E-2,9.976304169E0,9.976797580E0
3.139751958E0,4.311035156E-2,7.963439941E-2,1.023137375E1,1.023177448E1
3.149745958E0,8.472381592E-2,7.140151978E-2,9.888586578E0,9.889207290E0
3.159739958E0,7.439529419E-2,8.337661743E-2,1.008393036E1,1.008454946E1
3.169733958E0,6.466552734E-2,9.041198730E-2,9.814191284E0,9.814820758E0
3.179727958E0,2.799179077E-2,7.634124756E-2,9.866881714E0,9.867216744E0
3.189721958E0,3.532653809E-2,8.352630615E-2,9.681417389E0,9.681842142E0
3.199715958E0,4.475692749E-2,6.765930176E-2,9.667346649E0,9.667687014E0
3.209709958E0,5.164260864E-2,7.559280396E-2,9.557475128E0,9.557913583E0
3.219703958E0,6.227050781E-2,8.891510010E-2,9.533375244E0,9.533993238E0
3.229697958E0,6.840774536E-2,8.187973022E-2,9.532626801E0,9.533223884E0
3.239691958E0,6.616241455E-2,7.289840698E-2,9.488618317E0,9.489129001E0
3.249685958E0,6.930587769E-2,6.721023560E-2,9.597891083E0,9.598376621E0
3.259679958E0,8.068222046E-2,7.559280396E-2,9.724827118E0,9.725455587E0
3.269673958E0,7.918533325E-2,7.125183105E-2,9.614207153E0,9.614797259E0
3.279666958E0,5.104385376E-2,7.963439941E-2,9.793833618E0,9.794290380E0
3.289660958E0,3.891906738E-2,1.231938171E-1,1.027238846E1,1.027320087E1
3.299654958E0,6.062393188E-2,1.118174744E-1,9.907297668E0,9.908114124E0
3.309648958E0,4.086502075E-2,9.160949707E-2,1.024694138E1,1.024743235E1
3.319642958E0,6.286926270E-2,6.930587769E-2,1.010922775E1,1.010966081E1
3.329636958E0,4.924758911E-2,7.110214233E-2,9.981842651E0,9.982217367E0
3.339630958E0,3.832031250E-2,7.559280396E-2,9.986183624E0,9.986543251E0
3.349624958E0,7.319778442E-2,6.361770630E-2,9.859996033E0,9.860472955E0
3.359618958E0,2.888992310E-2,6.451583862E-2,9.925559692E0,9.925811409E0
3.369612958E0,6.137237549E-2,7.978408813E-2,9.717791748E0,9.718313049E0
3.379606958E0,7.619155884E-2,6.152206421E-2,9.878407745E0,9.878893142E0
3.389600958E0,6.810836792E-2,4.610412598E-2,9.682016144E0,9.682365462E0
3.399594958E0,6.331832886E-2,4.281097412E-2,9.753866730E0,9.754166196E0
3.409588958E0,7.125183105E-2,7.514373779E-2,9.724228363E0,9.724779723E0
3.419582958E0,6.721023560E-2,7.664062500E-2,9.743987274E0,9.744520460E0
3.429576958E0,5.568420410E-2,8.472381592E-2,9.709708557E0,9.710237851E0
3.439570958E0,3.876937866E-2,8.023315430E-2,9.776020660E0,9.776426769E0
3.449563958E0,3.712280273E-2,9.325607300E-2,9.845625916E0,9.846137540E0
3.459557958E0,5.598358154E-2,9.475296021E-2,9.871072998E0,9.871686503E0
3.469551958E0,5.433700562E-2,1.170565796E-1,9.931247864E0,9.932086331E0
3.479545958E0,6.271957397E-2,1.191522217E-1,9.947863312E0,9.948774571E0
3.489539958E0,7.738906860E-2,1.071771240E-1,9.896969147E0,9.897852004E0
3.499533958E0,5.598358154E-2,1.040336609E-1,9.868827667E0,9.869534776E0
3.509527958E0,6.137237549E-2,9.385482788E-2,9.845625916E0,9.846264518E0
3.519521958E0,4.805007935E-2,5.598358154E-2,9.811945953E0,9.812223314E0
3.529515958E0,7.020401001E-2,6.316864014E-2,9.857900391E0,9.858352752E0
3.539509958E0,7.020401001E-2,7.708969116E-2,9.787397003E0,9.787952366E0
3.549503958E0,6.047424316E-2,7.125183105E-2,9.829459534E0,9.829903798E0
3.559497958E0,6.256988525E-2,4.445755005E-2,9.768536224E0,9.768837773E0
3.569491958E0,4.834945679E-2,4.340972900E-2,9.835447083E0,9.835661716E0
3.579485958E0,6.212081909E-2,6.271957397E-2,9.784103851E0,9.784502078E0
3.589479958E0,6.316864014E-2,6.646179199E-2,9.843081207E0,9.843508272E0
3.599473958E0,5.867797852E-2,7.933502197E-2,9.816137238E0,9.816633202E0
3.609467958E0,6.182144165E-2,8.427474976E-2,9.888137512E0,9.888689882E0
3.619460958E0,5.209167480E-2,9.086105347E-2,9.849817200E0,9.850374010E0
3.629454958E0,6.137237549E-2,7.574249268E-2,9.868977356E0,9.869458827E0
3.639448958E0,7.035369873E-2,9.011260986E-2,9.835896149E0,9.836560526E0
3.649442958E0,6.346801758E-2,8.038284302E-2,9.850116577E0,9.850649023E0
3.659436958E0,4.400848389E-2,8.322692871E-2,9.841135254E0,9.841585571E0
3.669430958E0,4.116439819E-2,8.128097534E-2,9.816286926E0,9.816709740E0
3.679424958E0,4.924758911E-2,9.160949707E-2,9.806856537E0,9.807408055E0
3.689418958E0,6.152206421E-2,9.250762939E-2,9.837243347E0,9.837870669E0
3.699412958E0,4.879852295E-2,7.798782349E-2,9.821975098E0,9.822405928E0
3.709406958E0,4.355941772E-2,7.469467163E-2,9.852361908E0,9.852741338E0
3.719400958E0,6.556365967E-2,8.502319336E-2,9.840985565E0,9.841571238E0
3.729394958E0,7.843688965E-2,8.711883545E-2,9.857601013E0,9.858298016E0
3.739388958E0,6.541397095E-2,7.589218140E-2,9.847721558E0,9.848231236E0
3.749382958E0,5.837860107E-2,5.777984619E-2,9.848619690E0,9.848962198E0
3.759376958E0,6.346801758E-2,6.391708374E-2,9.847721558E0,9.848133501E0
3.769370958E0,6.361770630E-2,6.092330933E-2,9.834548950E0,9.834943412E0
3.779363958E0,6.556365967E-2,7.738906860E-2,9.837093658E0,9.837616546E0
3.789357667E0,5.673202515E-2,7.903564453E-2,9.828112335E0,9.828593858E0
3.799351667E0,5.284011841E-2,9.056167603E-2,9.824070740E0,9.824630242E0
3.809345667E0,4.924758911E-2,9.954299927E-2,9.852511597E0,9.853137515E0
3.819339667E0,5.044509888E-2,8.666976929E-2,9.836644592E0,9.837155747E0
3.829333667E0,5.852828979E-2,9.041198730E-2,9.856403503E0,9.856991930E0
3.839327667E0,6.750961304E-2,8.607101440E-2,9.847272491E0,9.847880040E0
3.849321667E0,5.807922363E-2,9.924362183E-2,9.857151947E0,9.857822630E0
3.859315667E0,6.676116943E-2,8.711883545E-2,9.843081207E0,9.843693128E0
3.869309667E0,6.601272583E-2,9.131011963E-2,9.841734009E0,9.842378956E0
3.879303667E0,6.212081909E-2,8.008346558E-2,9.840536499E0,9.841058426E0
3.889297667E0,6.227050781E-2,7.544311523E-2,9.829160156E0,9.829646924E0
3.899291667E0,6.047424316E-2,7.349716187E-2,9.831106110E0,9.831566829E0
3.909285667E0,5.343887329E-2,7.813751221E-2,9.835147705E0,9.835603264E0
3.919279667E0,5.358856201E-2,7.469467163E-2,9.839638367E0,9.840067795E0
3.929273667E0,5.882766724E-2,7.903564453E-2,9.842183075E0,9.842676212E0
3.939267667E0,6.930587769E-2,7.185058594E-2,9.835596771E0,9.836103378E0
3.949260667E0,6.646179199E-2,6.825805664E-2,9.839039612E0,9.839500842E0
3.959254667E0,5.703140259E-2,6.316864014E-2,9.829010468E0,9.829378904E0
3.969248667E0,6.631210327E-2,7.319778442E-2,9.849517822E0,9.850013022E0
3.979242667E0,6.556365967E-2,8.262817383E-2,9.843679962E0,9.844245081E0
3.989236667E0,6.721023560E-2,9.131011963E-2,9.842632141E0,9.843285133E0
3.999230667E0,6.691085815E-2,8.382568359E-2,9.836644592E0,9.837229317E0
4.009224667E0,6.271957397E-2,8.187973022E-2,9.849368134E0,9.849908155E0
4.019218667E0,5.448669434E-2,7.439529419E-2,9.834548950E0,9.834981267E0
4.029212667E0,5.897735596E-2,8.951385498E-2,9.835147705E0,9.835731871E0
4.039206667E0,6.242019653E-2,8.996292114E-2,9.833351440E0,9.833961062E0
4.049200667E0,6.496490479E-2,7.798782349E-2,9.838590546E0,9.839114110E0
4.059194667E0,5.852828979E-2,7.738906860E-2,9.842033386E0,9.842511661E0
4.069188667E0,4.894821167E-2,7.334747314E-2,9.843979340E0,9.844374283E0
4.079182667E0,5.328918457E-2,7.694000244E-2,9.834848328E0,9.835293647E0
4.089176667E0,5.822891235E-2,7.783813477E-2,9.831555176E0,9.832035728E0
4.099170667E0,6.481521606E-2,6.825805664E-2,9.829160156E0,9.829610855E0
4.109163667E0,6.661148071E-2,7.574249268E-2,9.849368134E0,9.849884601E0
4.119157667E0,5.807922363E-2,7.768844604E-2,9.844278717E0,9.844756582E0
4.129151667E0,5.972579956E-2,8.008346558E-2,9.857451324E0,9.857957555E0
4.139145667E0,6.271957397E-2,7.229965210E-2,9.828112335E0,9.828578384E0
4.149139667E0,5.733078003E-2,6.391708374E-2,9.848919067E0,9.849293325E0
4.159133667E0,5.942642212E-2,7.125183105E-2,9.841584320E0,9.842021655E0
4.169127667E0,5.792953491E-2,8.202941895E-2,9.852960663E0,9.853472407E0
4.179121667E0,5.568420410E-2,8.771759033E-2,9.845027161E0,9.845575397E0
4.189115667E0,5.343887329E-2,8.831634521E-2,9.849817200E0,9.850358083E0
4.199109667E0,5.418731689E-2,9.160949707E-2,9.856702881E0,9.857277527E0
4.209103667E0,5.209167480E-2,9.310638428E-2,9.864636383E0,9.865213293E0
4.219097667E0,5.119354248E-2,7.918533325E-2,9.892777863E0,9.893227225E0
4.229091667E0,7.140151978E-2,7.993377686E-2,9.924511871E0,9.925090603E0
4.239085667E0,7.723937988E-2,7.020401001E-2,9.892478485E0,9.893029117E0
4.249079667E0,7.065307617E-2,8.487350464E-2,9.937534790E0,9.938148372E0
4.259073667E0,5.867797852E-2,7.723937988E-2,9.915231171E0,9.915705633E0
4.269067667E0,6.062393188E-2,7.334747314E-2,9.945917358E0,9.946372566E0
4.279060667E0,5.194198608E-2,8.217910767E-2,9.923763428E0,9.924239615E0
4.289054667E0,4.655319214E-2,7.963439941E-2,9.970615997E0,9.971042684E0
4.299048667E0,5.313949585E-2,8.262817383E-2,9.969568176E0,9.970052199E0
4.309042667E0,6.601272583E-2,7.903564453E-2,9.946815491E0,9.947348527E0
4.319036667E0,5.343887329E-2,8.232879639E-2,1.001552261E1,1.001600354E1
4.329030667E0,6.182144165E-2,7.349716187E-2,9.932595062E0,9.933059367E0
4.339024667E0,6.032455444E-2,7.214996338E-2,9.994416504E0,9.994858975E0
4.349018667E0,7.125183105E-2,7.903564453E-2,9.955198059E0,9.955766764E0
4.359012667E0,7.110214233E-2,7.259902954E-2,9.965526581E0,9.966044660E0
4.369006667E0,5.897735596E-2,8.292755127E-2,9.986183624E0,9.986702093E0
4.379000667E0,6.975494385E-2,8.128097534E-2,9.970765686E0,9.971340969E0
4.388994667E0,6.361770630E-2,7.723937988E-2,9.999655609E0,1.000015627E1
4.398988667E0,5.927673340E-2,7.828720093E-2,9.950557709E0,9.951042223E0
4.408982667E0,5.463638306E-2,7.379653931E-2,1.003782623E1,1.003824619E1
4.418976667E0,5.987548828E-2,7.679031372E-2,9.997110901E0,9.997585118E0
4.428970667E0,5.688171387E-2,7.379653931E-2,1.005414230E1,1.005457403E1
4.438964667E0,6.002517700E-2,8.098159790E-2,1.003722748E1,1.003773363E1
4.448957667E0,5.673202515E-2,8.367599487E-2,1.006072861E1,1.006123652E1
4.458951667E0,5.927673340E-2,7.843688965E-2,1.008363098E1,1.008411027E1
4.468945667E0,6.361770630E-2,7.259902954E-2,1.008961853E1,1.009008027E1
4.478939667E0,5.733078003E-2,9.101074219E-2,1.009021729E1,1.009079059E1
4.488933667E0,5.912704468E-2,8.113128662E-2,1.010967682E1,1.011017525E1
4.498927667E0,6.885681152E-2,7.858657837E-2,1.012748978E1,1.012802875E1
4.508921667E0,5.807922363E-2,8.741821289E-2,1.012479538E1,1.012533933E1
4.518915667E0,6.571334839E-2,9.220825195E-2,1.014425491E1,1.014488681E1
4.528909667E0,6.406677246E-2,8.262817383E-2,1.015862503E1,1.015916308E1
4.538903667E0,5.777984619E-2,7.948471069E-2,1.013961456E1,1.014009072E1
4.548897667E0,5.224136353E-2,7.978408813E-2,1.015518219E1,1.015562996E1
4.558891667E0,5.792953491E-2,8.232879639E-2,1.015787659E1,1.015837539E1
4.568885667E0,5.688171387E-2,8.232879639E-2,1.016296600E1,1.016345864E1
4.578879667E0,5.089416504E-2,8.786727905E-2,1.016012192E1,1.016062932E1
4.588873667E0,6.062393188E-2,8.577163696E-2,1.015353561E1,1.015407886E1
4.598867667E0,6.092330933E-2,8.023315430E-2,1.016206787E1,1.016256722E1
4.608860667E0,6.002517700E-2,8.053253174E-2,1.016236725E1,1.016286360E1
4.618854667E0,5.373825073E-2,7.244934082E-2,1.017030075E1,1.017070077E1
4.628848667E0,6.810836792E-2,7.963439941E-2,1.018347336E1,1.018401247E1
4.638842667E0,6.586303711E-2,7.858657837E-2,1.017389328E1,1.017440997E1
4.648836667E0,7.274871826E-2,8.412506104E-2,1.018407211E1,1.018467939E1
4.658830667E0,7.110214233E-2,8.098159790E-2,1.018197647E1,1.018254675E1
4.668824667E0,6.960525513E-2,8.427474976E-2,1.021685394E1,1.021743860E1
4.678818667E0,7.155120850E-2,8.083190918E-2,1.020248383E1,1.020305491E1
4.688812667E0,6.481521606E-2,8.532257080E-2,1.022418869E1,1.022475014E1
4.698806667E0,5.418731689E-2,8.711883545E-2,1.023257126E1,1.023308558E1
4.708800667E0,6.571334839E-2,8.053253174E-2,1.024065445E1,1.024118193E1
4.718794667E0,5.358856201E-2,7.948471069E-2,1.024020538E1,1.024065407E1
4.728788667E0,5.418731689E-2,7.200027466E-2,1.026445496E1,1.026485050E1
4.738782667E0,6.511459351E-2,7.125183105E-2,1.025427612E1,1.025473040E1
4.748776667E0,6.601272583E-2,7.679031372E-2,1.026969406E1,1.027019331E1
4.758770667E0,6.900650024E-2,7.574249268E-2,1.027223877E1,1.027274979E1
4.768763667E0,5.688171387E-2,7.903564453E-2,1.027987289E1,1.028033408E1
4.778757667E0,6.556365967E-2,7.439529419E-2,1.029184799E1,1.029232570E1
4.788751667E0,6.840774536E-2,7.888595581E-2,1.030951126E1,1.031004001E1
4.798746042E0,7.005432129E-2,8.128097534E-2,1.028107040E1,1.028163036E1
4.808740042E0,6.047424316E-2,8.487350464E-2,1.032702484E1,1.032755066E1
4.818734042E0,6.646179199E-2,8.981323242E-2,1.029588959E1,1.029649581E1
4.828728042E0,6.571334839E-2,9.475296021E-2,1.030067963E1,1.030132502E1
4.838722042E0,5.972579956E-2,8.951385498E-2,1.033465897E1,1.033521920E1
4.848716042E0,7.020401001E-2,7.843688965E-2,1.029035110E1,1.029088951E1
4.858710042E0,6.167175293E-2,8.831634521E-2,1.032537827E1,1.032594013E1
4.868704042E0,6.601272583E-2,7.783813477E-2,1.029963181E1,1.030013746E1
4.878698042E0,7.110214233E-2,7.888595581E-2,1.031430130E1,1.031484803E1
4.888692042E0,7.095245361E-2,8.232879639E-2,1.032642609E1,1.032699801E1
4.898686042E0,7.155120850E-2,8.457412720E-2,1.031190628E1,1.031250132E1
4.908680042E0,6.182144165E-2,7.798782349E-2,1.032582733E1,1.032630689E1
4.918674042E0,6.122268677E-2,6.795867920E-2,1.033376083E1,1.033416564E1
4.928668042E0,5.179229736E-2,7.020401001E-2,1.033989807E1,1.034026611E1
4.938661042E0,4.146377563E-2,7.589218140E-2,1.035741165E1,1.035777268E1
4.948655042E0,6.271957397E-2,8.532257080E-2,1.036100418E1,1.036154532E1
4.958649042E0,5.748046875E-2,8.652008057E-2,1.036579422E1,1.036631466E1
4.968643042E0,5.343887329E-2,7.768844604E-2,1.037043457E1,1.037086324E1
4.978637042E0,6.316864014E-2,8.652008057E-2,1.039812698E1,1.039867880E1
4.988631042E0,6.286926270E-2,8.442443848E-2,1.039049286E1,1.039102603E1
4.998625042E0,5.194198608E-2,8.352630615E-2,1.041668839E1,1.041715276E1
5.008619042E0,6.286926270E-2,8.831634521E-2,1.040276733E1,1.040333218E1
5.018613042E0,6.840774536E-2,7.798782349E-2,1.040306671E1,1.040358394E1
5.028607042E0,5.508544922E-2,6.496490479E-2,1.039513321E1,1.039548216E1
5.038601042E0,6.361770630E-2,7.589218140E-2,1.039258850E1,1.039306031E1
5.048595042E0,8.202941895E-2,7.694000244E-2,1.039797729E1,1.039858550E1
5.058589042E0,6.960525513E-2,6.945556641E-2,1.038001465E1,1.038048039E1
5.068583042E0,5.688171387E-2,8.083190918E-2,1.038225998E1,1.038273045E1
5.078577042E0,6.047424316E-2,7.334747314E-2,1.037597305E1,1.037640852E1
5.088571042E0,6.107299805E-2,7.679031372E-2,1.036863831E1,1.036910252E1
5.098564042E0,6.481521606E-2,8.187973022E-2,1.036833893E1,1.036886481E1
5.108558042E0,6.676116943E-2,8.187973022E-2,1.035965698E1,1.036019566E1
5.118552042E0,6.586303711E-2,8.696914673E-2,1.037776932E1,1.037834272E1
5.128546042E0,6.212081909E-2,8.951385498E-2,1.038270905E1,1.038328074E1
5.138540042E0,5.912704468E-2,9.939331055E-2,1.038076309E1,1.038140729E1
5.148534042E0,5.733078003E-2,9.250762939E-2,1.038061340E1,1.038118390E1
5.158528042E0,7.170089722E-2,8.786727905E-2,1.039498352E1,1.039560215E1
5.168522042E0,6.197113037E-2,9.131011963E-2,1.039154068E1,1.039212662E1
5.178516042E0,6.556365967E-2,8.637039185E-2,1.040007294E1,1.040063823E1
5.188510042E0,6.765930176E-2,8.187973022E-2,1.037342834E1,1.037397213E1
5.198504042E0,6.242019653E-2,8.143066406E-2,1.037732025E1,1.037782746E1
5.208498042E0,5.313949585E-2,6.795867920E-2,1.036923706E1,1.036959591E1
5.218492042E0,5.089416504E-2,6.661148071E-2,1.034723282E1,1.034757239E1
5.228486042E0,6.047424316E-2,6.706054688E-2,1.035801041E1,1.035840402E1
5.238480042E0,6.017486572E-2,7.214996338E-2,1.033570679E1,1.033613378E1
5.248474042E0,6.735992432E-2,8.098159790E-2,1.031055908E1,1.031109713E1
5.258468042E0,7.813751221E-2,8.307723999E-2,1.032537827E1,1.032600812E1
5.268461042E0,6.975494385E-2,7.828720093E-2,1.030801437E1,1.030854767E1
5.278455042E0,6.975494385E-2,8.562194824E-2,1.030397278E1,1.030456461E1
5.288449042E0,7.499404907E-2,8.382568359E-2,1.030487091E1,1.030548472E1
5.298443042E0,7.244934082E-2,8.292755127E-2,1.031400192E1,1.031458974E1
5.308437042E0,5.718109131E-2,8.607101440E-2,1.030472122E1,1.030523932E1
5.318431042E0,5.957611084E-2,7.394622803E-2,1.030097900E1,1.030141669E1
5.328425042E0,4.251159668E-2,8.053253174E-2,1.031265472E1,1.031305678E1
5.338419042E0,5.269042969E-2,7.798782349E-2,1.029903305E1,1.029946310E1
5.348413042E0,5.044509888E-2,6.721023560E-2,1.030696655E1,1.030730913E1
5.358407042E0,6.301895142E-2,7.679031372E-2,1.030367340E1,1.030415225E1
5.368401042E0,7.334747314E-2,8.128097534E-2,1.032567764E1,1.032625805E1
5.378395042E0,7.020401001E-2,7.873626709E-2,1.030472122E1,1.030526115E1
5.388389042E0,7.185058594E-2,9.190887451E-2,1.031310379E1,1.031376360E1
5.398383042E0,7.559280396E-2,8.412506104E-2,1.030576904E1,1.030638961E1
5.408377042E0,6.825805664E-2,8.637039185E-2,1.032313293E1,1.032371990E1
5.418371042E0,7.394622803E-2,9.939331055E-2,1.032013916E1,1.032088268E1
5.428364042E0,6.735992432E-2,7.723937988E-2,1.033630554E1,1.033681361E1
5.438358042E0,4.969665527E-2,7.005432129E-2,1.032073792E1,1.032109531E1
5.448352042E0,4.475692749E-2,6.077362061E-2,1.032956955E1,1.032984529E1
5.458346042E0,5.673202515E-2,5.867797852E-2,1.033061737E1,1.033093979E1
5.468340042E0,5.403762817E-2,6.601272583E-2,1.033989807E1,1.034024999E1
5.478334042E0,5.897735596E-2,7.888595581E-2,1.034393967E1,1.034440859E1
5.488328042E0,7.065307617E-2,8.367599487E-2,1.036220169E1,1.036278039E1
5.498322042E0,7.723937988E-2,9.460327148E-2,1.034543655E1,1.034615741E1
5.508316042E0,7.439529419E-2,1.115180969E-1,1.036414764E1,1.036501458E1
5.518310042E0,6.511459351E-2,1.106199646E-1,1.037552399E1,1.037631797E1
5.528304042E0,6.556365967E-2,1.133143616E-1,1.037971527E1,1.038054083E1
5.538298042E0,6.331832886E-2,1.038839722E-1,1.037058426E1,1.037129784E1
5.548292042E0,5.628295898E-2,9.505233765E-2,1.036863831E1,1.036922673E1
5.558286042E0,4.400848389E-2,7.873626709E-2,1.036519547E1,1.036558793E1
5.568280042E0,5.822891235E-2,7.259902954E-2,1.037013519E1,1.037055279E1
5.578274042E0,6.706054688E-2,6.301895142E-2,1.037178177E1,1.037219001E1
5.588267042E0,8.068222046E-2,5.373825073E-2,1.035247192E1,1.035292579E1
5.598261042E0,7.364685059E-2,6.376739502E-2,1.034783157E1,1.034829012E1
5.608255042E0,8.023315430E-2,6.167175293E-2,1.032627640E1,1.032677225E1
5.618249042E0,6.481521606E-2,6.810836792E-2,1.033046768E1,1.033089552E1
5.628243042E0,5.867797852E-2,8.457412720E-2,1.033106644E1,1.033157924E1
5.638237042E0,6.227050781E-2,9.071136475E-2,1.032013916E1,1.032072567E1
5.648231042E0,6.002517700E-2,9.205856323E-2,1.032163605E1,1.032222110E1
5.658225042E0,5.433700562E-2,9.819580078E-2,1.032403107E1,1.032464103E1
5.668219042E0,5.373825073E-2,8.771759033E-2,1.031280441E1,1.031331746E1
5.678213042E0,3.442840576E-2,7.873626709E-2,1.033376083E1,1.033411814E1
5.688207042E0,3.966751099E-2,8.173004150E-2,1.033944901E1,1.033984811E1
5.698201042E0,5.029541016E-2,8.098159790E-2,1.033510803E1,1.033554767E1
5.708195042E0,6.915618896E-2,7.708969116E-2,1.035022659E1,1.035074470E1
5.718189042E0,6.466552734E-2,8.801696777E-2,1.033885025E1,1.033942712E1
5.728183042E0,5.957611084E-2,8.038284302E-2,1.034423904E1,1.034472291E1
5.738177042E0,6.077362061E-2,8.187973022E-2,1.033391052E1,1.033441360E1
5.748170042E0,5.059478760E-2,8.322692871E-2,1.032762360E1,1.032808287E1
5.758164042E0,5.748046875E-2,8.726852417E-2,1.035262161E1,1.035314899E1
5.768158042E0,6.406677246E-2,8.292755127E-2,1.033361115E1,1.033414248E1
5.778152042E0,6.242019653E-2,7.918533325E-2,1.034094589E1,1.034143745E1
5.788146042E0,6.511459351E-2,7.783813477E-2,1.034738251E1,1.034788014E1
5.798140083E0,6.182144165E-2,7.888595581E-2,1.036938675E1,1.036987109E1
5.808134083E0,5.867797852E-2,8.397537231E-2,1.035980667E1,1.036031318E1
5.818128083E0,6.107299805E-2,8.113128662E-2,1.035860916E1,1.035910691E1
5.828122083E0,6.601272583E-2,7.858657837E-2,1.037941589E1,1.037992331E1
5.838116083E0,6.586303711E-2,9.475296021E-2,1.034992722E1,1.035057049E1
5.848110083E0,5.867797852E-2,8.412506104E-2,1.037537430E1,1.037588126E1
5.858104083E0,6.616241455E-2,7.439529419E-2,1.036983582E1,1.037031374E1
5.868098083E0,5.852828979E-2,6.601272583E-2,1.033301239E1,1.033338900E1
5.878092083E0,5.508544922E-2,7.155120850E-2,1.035112473E1,1.035151859E1
5.888086083E0,5.718109131E-2,6.556365967E-2,1.032537827E1,1.032574475E1
5.898080083E0,7.544311523E-2,7.379653931E-2,1.032358200E1,1.032412141E1
5.908073083E0,8.457412720E-2,7.469467163E-2,1.032762360E1,1.032823999E1
5.918067083E0,7.110214233E-2,8.307723999E-2,1.031130753E1,1.031188733E1
5.928061083E0,6.182144165E-2,8.592132568E-2,1.032013916E1,1.032068199E1
5.938055083E0,7.334747314E-2,8.577163696E-2,1.031789383E1,1.031851102E1
5.948049083E0,7.110214233E-2,8.981323242E-2,1.033091675E1,1.033155181E1
5.958043083E0,6.511459351E-2,1.094224548E-1,1.032927017E1,1.033005496E1
5.968037083E0,6.870712280E-2,1.005908203E-1,1.032298325E1,1.032370197E1
5.978031083E0,5.598358154E-2,9.220825195E-2,1.032492920E1,1.032549270E1
5.988025083E0,5.478607178E-2,9.116043091E-2,1.034723282E1,1.034777941E1
5.998019083E0,6.511459351E-2,9.086105347E-2,1.036444702E1,1.036504982E1
6.008013083E0,6.691085815E-2,7.110214233E-2,1.035801041E1,1.035847055E1
6.018007083E0,6.780899048E-2,6.227050781E-2,1.037267990E1,1.037308845E1
6.028001083E0,7.185058594E-2,7.514373779E-2,1.037866745E1,1.037918817E1
6.037995083E0,7.170089722E-2,7.229965210E-2,1.036833893E1,1.036883891E1
6.047989083E0,8.846603394E-2,5.718109131E-2,1.038690033E1,1.038743445E1
6.057983083E0,9.295669556E-2,6.915618896E-2,1.035636383E1,1.035701189E1
6.067976083E0,8.891510010E-2,7.768844604E-2,1.035232224E1,1.035299556E1
6.077970083E0,8.741821289E-2,8.397537231E-2,1.032807266E1,1.032878399E1
6.087964083E0,6.586303711E-2,7.828720093E-2,1.033106644E1,1.033157299E1
6.097958083E0,8.442443848E-2,8.681945801E-2,1.032807266E1,1.032878260E1
6.107952083E0,9.385482788E-2,7.993377686E-2,1.030052994E1,1.030126765E1
6.117946083E0,8.442443848E-2,6.990463257E-2,1.032088760E1,1.032146962E1
6.127940083E0,5.583389282E-2,8.053253174E-2,1.029678772E1,1.029725402E1
6.137934083E0,5.328918457E-2,9.101074219E-2,1.031085846E1,1.031139781E1
6.147928083E0,4.760101318E-2,9.714797974E-2,1.031804352E1,1.031861064E1
6.157922083E0,5.673202515E-2,8.637039185E-2,1.031624725E1,1.031676479E1
6.167916083E0,5.508544922E-2,9.654922485E-2,1.033001862E1,1.033061667E1
6.177910083E0,4.715194702E-2,9.595046997E-2,1.030966095E1,1.031021526E1
6.187904083E0,5.074447632E-2,9.041198730E-2,1.035935760E1,1.035987641E1
6.197898083E0,5.523513794E-2,9.235794067E-2,1.029723679E1,1.029779910E1
6.207892083E0,5.718109131E-2,8.143066406E-2,1.035307068E1,1.035354882E1
6.217886083E0,3.772155762E-2,7.379653931E-2,1.031220566E1,1.031253870E1
6.227880083E0,2.305206299E-2,6.556365967E-2,1.034154465E1,1.034177817E1
6.237873083E0,4.834945679E-2,7.170089722E-2,1.030651749E1,1.030688029E1
6.247867083E0,5.628295898E-2,7.499404907E-2,1.032477951E1,1.032520527E1
6.257861083E0,5.343887329E-2,7.229965210E-2,1.025547363E1,1.025586771E1
6.267855083E0,4.580474854E-2,8.053253174E-2,1.023227188E1,1.023269131E1
6.277849083E0,6.586303711E-2,8.816665649E-2,1.024050476E1,1.024109609E1
6.287843083E0,7.589218140E-2,9.011260986E-2,1.021850052E1,1.021917965E1
6.297837083E0,8.472381592E-2,8.322692871E-2,1.017045044E1,1.017114384E1
6.307831083E0,7.095245361E-2,8.232879639E-2,1.019978943E1,1.020036846E1
6.317825083E0,7.140151978E-2,7.259902954E-2,1.017284546E1,1.017335508E1
6.327819083E0,7.170089722E-2,7.110214233E-2,1.019709503E1,1.019759499E1
6.337813083E0,8.936416626E-2,6.855743408E-2,1.022299118E1,1.022361163E1
6.347807083E0,7.110214233E-2,6.960525513E-2,1.014215927E1,1.014264734E1
6.357801083E0,5.269042969E-2,6.930587769E-2,1.019365219E1,1.019402396E1
6.367795083E0,6.735992432E-2,6.975494385E-2,1.022703278E1,1.022749248E1
6.377789083E0,6.930587769E-2,7.903564453E-2,1.014410522E1,1.014464986E1
6.387782083E0,6.466552734E-2,9.131011963E-2,1.023511597E1,1.023572753E1
6.397776083E0,3.652404785E-2,8.577163696E-2,1.018601807E1,1.018644466E1
6.407770083E0,5.059478760E-2,9.445358276E-2,1.017299515E1,1.017355944E1
6.417764083E0,6.286926270E-2,1.100212097E-1,1.020652542E1,1.020731201E1
6.427758083E0,6.301895142E-2,1.029858398E-1,1.013497421E1,1.013569335E1
6.437752083E0,2.469863892E-2,8.367599487E-2,1.008033783E1,1.008071537E1
6.447746083E0,3.382965088E-2,8.487350464E-2,1.014530273E1,1.014571415E1
6.457740083E0,5.763015747E-2,8.966354370E-2,1.003588028E1,1.003644627E1
6.467734083E0,6.631210327E-2,8.607101440E-2,1.006102798E1,1.006161466E1
6.477728083E0,6.376739502E-2,7.738906860E-2,1.004575974E1,1.004626020E1
6.487722083E0,6.795867920E-2,7.304809570E-2,1.005608826E1,1.005658319E1
6.497716083E0,5.089416504E-2,8.217910767E-2,1.000444565E1,1.000491261E1
6.507710083E0,9.190887451E-2,7.813751221E-2,1.010892838E1,1.010964814E1
6.517704083E0,8.367599487E-2,7.484436035E-2,9.961934052E0,9.962566607E0
6.527698083E0,5.703140259E-2,9.101074219E-2,1.010503647E1,1.010560723E1
6.537692083E0,6.167175293E-2,1.001417542E-1,1.005354355E1,1.005423143E1
6.547685083E0,8.008346558E-2,8.622070312E-2,1.003513184E1,1.003582176E1
6.557679083E0,6.047424316E-2,8.158035278E-2,1.013093262E1,1.013144156E1
6.567673083E0,8.068222046E-2,8.502319336E-2,1.003977219E1,1.004045637E1
6.577667083E0,4.610412598E-2,8.307723999E-2,1.007899063E1,1.007943845E1
6.587661083E0,6.750961304E-2,7.664062500E-2,1.010039612E1,1.010091249E1
6.597655083E0,7.050338745E-2,7.200027466E-2,9.984836426E0,9.985344922E0
6.607649083E0,2.694396973E-2,8.891510010E-2,1.004650818E1,1.004693777E1
6.617643083E0,5.673202515E-2,9.295669556E-2,9.985435181E0,9.986029001E0
6.627637083E0,7.289840698E-2,8.307723999E-2,9.933792572E0,9.934407424E0
6.637631083E0,4.056564331E-2,8.696914673E-2,9.988578644E0,9.989039620E0
6.647625083E0,6.346801758E-2,7.214996338E-2,9.929301910E0,9.929766877E0
6.657619083E0,4.311035156E-2,8.143066406E-2,9.926607513E0,9.927035115E0
6.667613083E0,4.550537109E-2,8.038284302E-2,9.982142029E0,9.982569390E0
6.677607083E0,5.912704468E-2,7.170089722E-2,9.891131287E0,9.891567882E0
6.687601083E0,5.478607178E-2,7.514373779E-2,9.970915375E0,9.971349031E0
6.697595083E0,6.661148071E-2,6.795867920E-2,9.955198059E0,9.955652860E0
6.707588083E0,6.122268677E-2,5.837860107E-2,9.934391327E0,9.934751497E0
6.717582083E0,5.104385376E-2,7.679031372E-2,9.993967438E0,9.994392797E0
6.727576083E0,6.930587769E-2,7.020401001E-2,9.963430939E0,9.963919308E0
6.737570083E0,7.664062500E-2,7.274871826E-2,9.968670044E0,9.969230091E0
6.747564083E0,6.002517700E-2,8.352630615E-2,9.982291718E0,9.982821625E0
6.757558083E0,6.930587769E-2,7.484436035E-2,9.890682220E0,9.891208206E0
6.767552083E0,4.939727783E-2,7.634124756E-2,9.940977631E0,9.941393480E0
6.777546083E0,5.358856201E-2,8.397537231E-2,9.913584595E0,9.914085087E0
6.787540083E0,6.062393188E-2,7.933502197E-2,9.820478210E0,9.820985775E0
6.797534167E0,4.595443726E-2,6.990463257E-2,9.918224945E0,9.918577747E0
6.807528167E0,5.643264771E-2,6.481521606E-2,9.814939728E0,9.815315966E0
6.817522167E0,7.080276489E-2,7.065307617E-2,9.894574127E0,9.895079689E0
6.827516167E0,3.996688843E-2,8.262817383E-2,9.876012726E0,9.876439243E0
6.837510167E0,5.029541016E-2,7.200027466E-2,9.836195526E0,9.836587625E0
6.847504167E0,3.532653809E-2,7.155120850E-2,9.883197784E0,9.883519919E0
6.857498167E0,8.487350464E-2,9.056167603E-2,9.900411987E0,9.901189951E0
6.867491167E0,6.167175293E-2,8.831634521E-2,9.822274475E0,9.822865114E0
6.877485167E0,4.385879517E-2,9.056167603E-2,9.986183624E0,9.986690562E0
6.887479167E0,6.316864014E-2,7.963439941E-2,9.823771362E0,9.824297211E0
6.897473167E0,6.840774536E-2,1.001417542E-1,9.938881989E0,9.939621883E0
6.907467167E0,7.304809570E-2,9.595046997E-2,9.856852570E0,9.857590228E0
6.917461167E0,8.622070312E-2,7.155120850E-2,9.824968872E0,9.825607713E0
6.927455167E0,4.610412598E-2,9.041198730E-2,9.848769379E0,9.849292269E0
6.937449167E0,7.185058594E-2,7.439529419E-2,9.781409454E0,9.781956250E0
6.947443167E0,7.679031372E-2,7.559280396E-2,9.771230621E0,9.771824747E0
6.957437167E0,6.062393188E-2,8.427474976E-2,9.815089417E0,9.815638428E0
6.967431167E0,7.125183105E-2,6.646179199E-2,9.747430115E0,9.747917102E0
6.977425167E0,5.164260864E-2,7.439529419E-2,9.800270233E0,9.800688663E0
6.987419167E0,5.343887329E-2,6.870712280E-2,9.770931244E0,9.771318936E0
6.997413167E0,7.619155884E-2,6.391708374E-2,9.755513306E0,9.756020213E0
7.007407167E0,6.062393188E-2,7.978408813E-2,9.845625916E0,9.846135812E0
7.017401167E0,5.224136353E-2,8.397537231E-2,9.738448792E0,9.738950964E0
7.027394167E0,3.742218018E-2,8.681945801E-2,9.866732025E0,9.867184953E0
7.037388167E0,4.086502075E-2,8.801696777E-2,9.801168365E0,9.801648752E0
7.047382167E0,6.271957397E-2,6.990463257E-2,9.861043854E0,9.861491078E0
7.057376167E0,5.269042969E-2,9.145980835E-2,9.843081207E0,9.843647131E0
7.067370167E0,4.415817261E-2,8.173004150E-2,9.821825409E0,9.822264714E0
7.077364167E0,4.954696655E-2,6.511459351E-2,9.826765137E0,9.827105773E0
7.087358167E0,5.882766724E-2,7.738906860E-2,9.815538483E0,9.816019838E0
7.097352167E0,4.490661621E-2,7.993377686E-2,9.758357391E0,9.758788090E0
7.107346167E0,2.933898926E-2,8.442443848E-2,9.831106110E0,9.831512376E0
7.117340167E0,3.667373657E-2,7.394622803E-2,9.775272217E0,9.775620692E0
7.127334167E0,3.906875610E-2,7.394622803E-2,9.794731750E0,9.795088794E0
7.137328167E0,6.077362061E-2,7.394622803E-2,9.821376343E0,9.821842737E0
7.147322167E0,6.062393188E-2,6.601272583E-2,9.774074707E0,9.774485629E0
7.157316167E0,5.927673340E-2,6.646179199E-2,9.837393036E0,9.837796127E0
7.167310167E0,5.703140259E-2,8.128097534E-2,9.825567627E0,9.826069324E0
7.177304167E0,5.912704468E-2,7.035369873E-2,9.805209961E0,9.805640623E0
7.187297167E0,7.364685059E-2,8.113128662E-2,9.916728058E0,9.917333387E0
7.197291167E0,8.577163696E-2,7.349716187E-2,9.799372101E0,9.800023070E0
7.207285167E0,5.957611084E-2,8.412506104E-2,9.889484711E0,9.890021951E0
7.217279167E0,7.394622803E-2,8.711883545E-2,9.849667511E0,9.850330340E0
7.227273167E0,7.259902954E-2,8.981323242E-2,9.812993774E0,9.813673311E0
7.237267167E0,6.481521606E-2,9.175918579E-2,9.859996033E0,9.860636010E0
7.247261167E0,5.059478760E-2,8.726852417E-2,9.795180817E0,9.795700223E0
7.257255167E0,6.197113037E-2,7.858657837E-2,9.810748444E0,9.811258905E0
7.267249167E0,5.313949585E-2,8.113128662E-2,9.801168365E0,9.801648199E0
7.277243167E0,6.885681152E-2,6.616241455E-2,9.804611206E0,9.805076217E0
7.287237167E0,5.179229736E-2,7.289840698E-2,9.825567627E0,9.825974548E0
7.297231167E0,5.014572144E-2,7.424560547E-2,9.830806732E0,9.831214981E0
7.307225167E0,5.643264771E-2,6.047424316E-2,9.801018677E0,9.801367705E0
7.317219167E0,5.373825073E-2,6.361770630E-2,9.862989807E0,9.863341368E0
7.327213167E0,5.298980713E-2,6.945556641E-2,9.839338989E0,9.839726812E0
7.337207167E0,7.604187012E-2,7.679031372E-2,9.855056305E0,9.855648832E0
7.347200167E0,6.676116943E-2,8.053253174E-2,9.906698914E0,9.907251178E0
7.357194167E0,8.068222046E-2,7.753875732E-2,9.868677979E0,9.869312384E0
7.367188167E0,6.511459351E-2,9.071136475E-2,9.887987823E0,9.888618289E0
7.377182167E0,6.795867920E-2,8.517288208E-2,9.889185333E0,9.889785607E0
7.387176167E0,8.277786255E-2,7.229965210E-2,9.848320312E0,9.848933566E0
7.397170167E0,6.855743408E-2,7.843688965E-2,9.863438873E0,9.863988994E0
7.407164167E0,6.975494385E-2,7.993377686E-2,9.808503113E0,9.809076841E0
7.417158167E0,6.047424316E-2,8.038284302E-2,9.836494904E0,9.837009227E0
7.427152167E0,5.284011841E-2,7.274871826E-2,9.833201752E0,9.833612823E0
7.437146167E0,5.313949585E-2,6.496490479E-2,9.798473969E0,9.798833418E0
7.447140167E0,5.688171387E-2,8.322692871E-2,9.879904633E0,9.880418908E0
7.457134167E0,6.092330933E-2,8.038284302E-2,9.804611206E0,9.805129981E0
7.467128167E0,5.718109131E-2,7.364685059E-2,9.853709106E0,9.854150227E0
7.477122167E0,3.427871704E-2,7.858657837E-2,9.846973114E0,9.847346363E0
7.487116167E0,4.595443726E-2,7.170089722E-2,9.842931519E0,9.843299940E0
7.497110167E0,5.912704468E-2,8.367599487E-2,9.867181091E0,9.867713026E0
7.507103167E0,7.020401001E-2,7.244934082E-2,9.905202026E0,9.905715759E0
7.517097167E0,4.071533203E-2,6.750961304E-2,9.839338989E0,9.839654823E0
7.527091167E0,5.703140259E-2,8.232879639E-2,9.927655334E0,9.928160507E0
7.537085167E0,5.538482666E-2,7.679031372E-2,9.854756927E0,9.855211734E0
7.547079167E0,6.002517700E-2,5.852828979E-2,9.841734009E0,9.842091083E0
7.557073167E0,4.086502075E-2,7.858657837E-2,9.891131287E0,9.891527886E0
7.567067167E0,4.505630493E-2,8.711883545E-2,9.787696381E0,9.788187789E0
7.577061167E0,3.382965088E-2,7.649093628E-2,9.858948212E0,9.859302975E0
7.587055167E0,4.475692749E-2,6.900650024E-2,9.807455292E0,9.807800180E0
7.597049167E0,5.209167480E-2,7.529342651E-2,9.796977081E0,9.797404890E0
7.607043167E0,3.083587646E-2,9.520202637E-2,9.853709106E0,9.854217241E0
7.617037167E0,5.733078003E-2,7.694000244E-2,9.796677704E0,9.797147575E0
7.627031167E0,3.353027344E-2,8.262817383E-2,9.823621674E0,9.824026388E0
7.637025167E0,4.296066284E-2,8.891510010E-2,9.870923309E0,9.871417248E0
7.647019167E0,5.927673340E-2,8.202941895E-2,9.788295135E0,9.788818326E0
7.657013167E0,6.286926270E-2,8.906478882E-2,9.923164673E0,9.923763510E0
7.667007167E0,7.529342651E-2,9.131011963E-2,9.820328522E0,9.821041641E0
7.677000167E0,7.499404907E-2,6.810836792E-2,9.891430664E0,9.891949426E0
7.686994167E0,4.864883423E-2,8.726852417E-2,9.885892181E0,9.886397055E0
7.696988167E0,7.409591675E-2,7.065307617E-2,9.834998016E0,9.835530898E0
7.706982167E0,6.092330933E-2,6.511459351E-2,9.848020935E0,9.848424640E0
7.716976167E0,5.134323120E-2,6.855743408E-2,9.855804749E0,9.856176921E0
7.726970167E0,6.691085815E-2,5.942642212E-2,9.760602722E0,9.761012963E0
7.736964167E0,4.984634399E-2,6.301895142E-2,9.872569885E0,9.872896849E0
7.746958167E0,3.787124634E-2,6.391708374E-2,9.755363617E0,9.755646515E0
7.756952167E0,6.137237549E-2,8.038284302E-2,9.850266266E0,9.850785424E0
7.766946167E0,4.610412598E-2,8.262817383E-2,9.781858521E0,9.782316143E0
7.776940167E0,6.646179199E-2,6.137237549E-2,9.822723541E0,9.823140104E0
7.786934167E0,3.727249146E-2,8.023315430E-2,9.819580078E0,9.819978590E0
7.796928458E0,5.568420410E-2,9.220825195E-2,9.862690430E0,9.863278644E0
7.806922458E0,6.167175293E-2,8.607101440E-2,9.799521790E0,9.800093822E0
7.816916458E0,5.029541016E-2,8.487350464E-2,9.914931793E0,9.915422613E0
7.826910458E0,5.927673340E-2,8.831634521E-2,9.806257782E0,9.806834616E0
7.836903458E0,7.708969116E-2,8.951385498E-2,9.917775879E0,9.918479416E0
7.846897458E0,6.780899048E-2,8.652008057E-2,9.865534515E0,9.866146921E0
7.856891458E0,6.167175293E-2,7.334747314E-2,9.820178833E0,9.820646393E0
7.866885458E0,5.104385376E-2,8.128097534E-2,9.868528290E0,9.868995019E0
7.876879458E0,6.616241455E-2,7.963439941E-2,9.818981323E0,9.819527144E0
7.886873458E0,6.346801758E-2,7.394622803E-2,9.825717316E0,9.826200537E0
7.896867458E0,6.526428223E-2,7.798782349E-2,9.841284943E0,9.841810344E0
7.906861458E0,5.748046875E-2,6.316864014E-2,9.807754669E0,9.808126525E0
7.916855458E0,4.475692749E-2,7.349716187E-2,9.834099884E0,9.834476374E0
7.926849458E0,5.792953491E-2,7.574249268E-2,9.850715332E0,9.851176849E0
7.936843458E0,5.927673340E-2,5.882766724E-2,9.787696381E0,9.788052659E0
7.946837458E0,4.670288086E-2,7.394622803E-2,9.885892181E0,9.886279049E0
7.956831458E0,7.020401001E-2,7.933502197E-2,9.799372101E0,9.799944705E0
7.966825458E0,7.214996338E-2,7.110214233E-2,9.874216461E0,9.874736040E0
7.976819458E0,5.748046875E-2,8.681945801E-2,9.869875488E0,9.870424701E0
7.986813458E0,8.217910767E-2,9.101074219E-2,9.869576111E0,9.870337835E0
7.996806458E0,5.897735596E-2,8.652008057E-2,9.873018951E0,9.873574189E0
8.006800458E0,6.571334839E-2,8.352630615E-2,9.864636383E0,9.865208860E0
8.016794458E0,5.852828979E-2,8.741821289E-2,9.798174591E0,9.798739349E0
8.026788458E0,5.553451538E-2,9.505233765E-2,9.899214478E0,9.899826579E0
8.036782458E0,6.870712280E-2,7.903564453E-2,9.783056030E0,9.783616540E0
8.046776458E0,5.897735596E-2,7.783813477E-2,9.831106110E0,9.831591145E0
8.056770458E0,3.472778320E-2,8.951385498E-2,9.820627899E0,9.821097244E0
8.066764458E0,5.718109131E-2,7.903564453E-2,9.788744202E0,9.789230274E0
8.076758458E0,5.164260864E-2,8.936416626E-2,9.860145721E0,9.860685907E0
8.086752458E0,6.062393188E-2,9.145980835E-2,9.807904358E0,9.808518137E0
8.096746458E0,5.912704468E-2,6.227050781E-2,9.842482452E0,9.842857027E0
8.106740458E0,5.703140259E-2,8.247848511E-2,9.849667511E0,9.850177935E0
8.116734458E0,6.511459351E-2,9.250762939E-2,9.847871246E0,9.848520988E0
8.126728458E0,6.017486572E-2,8.173004150E-2,9.862091675E0,9.862613904E0
8.136722458E0,7.065307617E-2,7.664062500E-2,9.903256073E0,9.903804647E0
8.146716458E0,7.020401001E-2,7.080276489E-2,9.856104126E0,9.856608452E0
8.156709458E0,5.942642212E-2,7.858657837E-2,9.884994049E0,9.885485051E0
8.166703458E0,5.703140259E-2,6.616241455E-2,9.856253815E0,9.856640873E0
8.176697458E0,8.322692871E-2,6.885681152E-2,9.833052063E0,9.833645349E0
8.186691458E0,5.688171387E-2,8.038284302E-2,9.851164398E0,9.851656558E0
8.196685458E0,6.137237549E-2,8.008346558E-2,9.786049805E0,9.786569915E0
8.206679458E0,3.832031250E-2,8.756790161E-2,9.833201752E0,9.833666319E0
8.216673458E0,5.044509888E-2,9.116043091E-2,9.808203735E0,9.808757080E0
8.226667458E0,6.301895142E-2,7.918533325E-2,9.788444824E0,9.788967963E0
8.236661458E0,5.598358154E-2,8.262817383E-2,9.859846344E0,9.860351490E0
8.246655458E0,4.939727783E-2,7.978408813E-2,9.753567352E0,9.754018745E0
8.256649458E0,3.921844482E-2,7.574249268E-2,9.879605255E0,9.879973432E0
8.266643458E0,5.164260864E-2,8.517288208E-2,9.823022919E0,9.823527912E0
8.276637458E0,5.418731689E-2,6.735992432E-2,9.824220428E0,9.824600788E0
8.286631458E0,3.966751099E-2,7.289840698E-2,9.889784088E0,9.890132304E0
8.296625458E0,3.008743286E-2,7.948471069E-2,9.844428406E0,9.844795260E0
8.306619458E0,4.894821167E-2,8.038284302E-2,9.896071014E0,9.896518522E0
8.316612458E0,4.370910645E-2,9.370513916E-2,9.845775604E0,9.846318520E0
8.326606458E0,5.987548828E-2,8.562194824E-2,9.864636383E0,9.865189667E0
8.336600458E0,2.963836670E-2,8.562194824E-2,9.830956421E0,9.831373948E0
8.346594458E0,5.209167480E-2,9.400451660E-2,9.830207977E0,9.830795455E0
8.356588458E0,5.748046875E-2,9.864486694E-2,9.813891907E0,9.814555984E0
8.366582458E0,6.271957397E-2,8.412506104E-2,9.819580078E0,9.820140716E0
8.376576458E0,6.496490479E-2,7.005432129E-2,9.800270233E0,9.800735926E0
8.386570458E0,6.167175293E-2,7.933502197E-2,9.811646576E0,9.812161127E0
8.396564458E0,5.972579956E-2,7.903564453E-2,9.837692413E0,9.838191187E0
8.406558458E0,8.083190918E-2,7.664062500E-2,9.807006226E0,9.807638793E0
8.416552458E0,6.810836792E-2,7.424560547E-2,9.859696655E0,9.860211422E0
8.426546458E0,5.718109131E-2,6.855743408E-2,9.839039612E0,9.839444612E0
8.436540458E0,4.655319214E-2,6.032455444E-2,9.837991791E0,9.838286880E0
8.446534458E0,4.011657715E-2,6.915618896E-2,9.920320587E0,9.920642745E0
8.456528458E0,5.463638306E-2,7.364685059E-2,9.843979340E0,9.844406444E0
8.466522458E0,4.326004028E-2,8.158035278E-2,9.903854828E0,9.904285297E0
8.476516458E0,4.400848389E-2,8.382568359E-2,9.864786072E0,9.865240379E0
8.486509458E0,4.730163574E-2,8.053253174E-2,9.819580078E0,9.820024228E0
8.496503458E0,4.655319214E-2,8.996292114E-2,9.879006500E0,9.879525796E0
8.506497458E0,4.176315308E-2,7.918533325E-2,9.770182800E0,9.770592942E0
8.516491458E0,5.179229736E-2,7.289840698E-2,9.841135254E0,9.841541531E0
8.526485458E0,5.388793945E-2,8.846603394E-2,9.775870972E0,9.776419764E0
8.536479458E0,7.334747314E-2,6.870712280E-2,9.839039612E0,9.839552886E0
8.546473458E0,5.224136353E-2,7.035369873E-2,9.790241089E0,9.790633247E0
8.556467458E0,4.550537109E-2,7.319778442E-2,9.835297394E0,9.835675039E0
8.566461458E0,3.353027344E-2,7.604187012E-2,9.793683929E0,9.794036530E0
8.576455458E0,4.460723877E-2,8.187973022E-2,9.856702881E0,9.857143896E0
8.586449458E0,6.167175293E-2,7.888595581E-2,9.809251556E0,9.809762612E0
8.596443458E0,6.152206421E-2,8.262817383E-2,9.912237396E0,9.912772699E0
8.606437458E0,4.819976807E-2,9.654922485E-2,9.894873505E0,9.895461922E0
8.616431458E0,6.601272583E-2,8.232879639E-2,9.846074982E0,9.846640455E0
8.626425458E0,4.700225830E-2,8.666976929E-2,9.931098175E0,9.931587578E0
8.636419458E0,6.750961304E-2,9.116043091E-2,9.855205994E0,9.855858813E0
8.646412458E0,6.301895142E-2,8.023315430E-2,9.826765137E0,9.827294735E0
8.656406458E0,6.032455444E-2,7.514373779E-2,9.884844360E0,9.885314040E0
8.666400458E0,7.155120850E-2,6.481521606E-2,9.773326263E0,9.773803090E0
8.676394458E0,8.936416626E-2,7.604187012E-2,9.849667511E0,9.850366409E0
8.686388458E0,8.128097534E-2,7.499404907E-2,9.815837860E0,9.816460849E0
8.696382458E0,7.918533325E-2,8.098159790E-2,9.770332489E0,9.770988961E0
8.706376458E0,4.700225830E-2,8.083190918E-2,9.907896423E0,9.908337628E0
8.716370458E0,4.700225830E-2,7.873626709E-2,9.755363617E0,9.755794581E0
8.726364458E0,4.685256958E-2,7.948471069E-2,9.863887939E0,9.864319453E0
8.736358458E0,2.350112915E-2,9.145980835E-2,9.849368134E0,9.849820802E0
8.746352458E0,4.505630493E-2,7.783813477E-2,9.848470001E0,9.848880658E0
8.756346458E0,4.011657715E-2,1.032852173E-1,9.872270508E0,9.872892289E0
8.766340458E0,5.583389282E-2,1.369651794E-1,9.901010742E0,9.902115461E0
8.776334458E0,4.879852295E-2,1.219963074E-1,9.859397278E0,9.860272769E0
8.786328458E0,3.637435913E-2,6.676116943E-2,9.961934052E0,9.962224159E0
8.796322083E0,2.529739380E-2,2.874023438E-2,9.792336731E0,9.792411583E0
8.806316083E0,4.206253052E-2,2.484832764E-2,9.876312103E0,9.876432932E0
8.816309083E0,4.161346436E-2,5.358856201E-2,9.824968872E0,9.825203140E0
8.826303083E0,7.170089722E-2,6.002517700E-2,9.796228638E0,9.796674924E0
8.836297083E0,5.478607178E-2,7.828720093E-2,9.840237122E0,9.840701043E0
8.846291083E0,4.251159668E-2,7.888595581E-2,9.782756653E0,9.783167072E0
8.856285083E0,2.963836670E-2,8.008346558E-2,9.820328522E0,9.820699775E0
8.866279083E0,4.370910645E-2,9.684860229E-2,9.836794281E0,9.837368137E0
8.876273083E0,6.047424316E-2,8.696914673E-2,9.779313812E0,9.779887495E0
8.886267083E0,4.745132446E-2,1.020877075E-1,9.844727783E0,9.845371433E0
8.896261083E0,7.948471069E-2,1.052311707E-1,9.879904633E0,9.880784734E0
8.906255083E0,7.229965210E-2,7.394622803E-2,9.791887665E0,9.792433779E0
8.916249083E0,5.852828979E-2,6.017486572E-2,9.949360199E0,9.949714315E0
8.926243083E0,5.942642212E-2,8.397537231E-2,9.857750702E0,9.858287491E0
8.936237083E0,5.029541016E-2,1.059796143E-1,9.918224945E0,9.918918659E0
8.946231083E0,6.795867920E-2,1.107696533E-1,9.878108368E0,9.878963166E0
8.956225083E0,8.696914673E-2,8.472381592E-2,9.851463776E0,9.852211949E0
8.966219083E0,6.571334839E-2,7.244934082E-2,9.811197510E0,9.811685061E0
8.976212083E0,6.571334839E-2,8.442443848E-2,9.845176849E0,9.845758118E0
8.986206083E0,5.433700562E-2,8.008346558E-2,9.764045563E0,9.764525161E0
8.996200083E0,5.538482666E-2,7.918533325E-2,9.834848328E0,9.835323046E0
9.006194083E0,6.571334839E-2,7.649093628E-2,9.772428131E0,9.772948413E0
9.016188083E0,5.284011841E-2,7.110214233E-2,9.832004242E0,9.832403318E0
9.026182083E0,3.293151855E-2,6.227050781E-2,9.760752411E0,9.761006594E0
9.036176083E0,4.041595459E-2,6.331832886E-2,9.806706848E0,9.806994538E0
9.046170083E0,3.338058472E-2,6.840774536E-2,9.822274475E0,9.822569407E0
9.056164083E0,7.095245361E-2,6.945556641E-2,9.866732025E0,9.867231587E0
9.066158083E0,6.481521606E-2,7.589218140E-2,9.808802490E0,9.809310217E0
9.076152083E0,2.335144043E-2,7.813751221E-2,9.926158447E0,9.926493453E0
9.086146083E0,2.769241333E-2,7.708969116E-2,9.819729767E0,9.820071404E0
9.096140083E0,5.194198608E-2,7.214996338E-2,9.932445374E0,9.932843233E0
9.106134083E0,6.421646118E-2,7.798782349E-2,9.840237122E0,9.840755686E0
9.116128083E0,7.005432129E-2,7.319778442E-2,9.834249573E0,9.834771486E0
9.126122083E0,3.682342529E-2,8.457412720E-2,9.888586578E0,9.889016800E0
9.136115083E0,6.661148071E-2,8.622070312E-2,9.788444824E0,9.789051189E0
9.146109083E0,5.942642212E-2,7.888595581E-2,9.857002258E0,9.857497046E0
9.156103083E0,5.358856201E-2,8.607101440E-2,9.797276459E0,9.797801078E0
9.166097083E0,6.511459351E-2,7.214996338E-2,9.804461517E0,9.804943201E0
9.176091083E0,7.753875732E-2,7.304809570E-2,9.836494904E0,9.837071733E0
9.186085083E0,8.786727905E-2,7.619155884E-2,9.803713074E0,9.804402881E0
9.196079083E0,7.694000244E-2,7.170089722E-2,9.840386810E0,9.840948804E0
9.206073083E0,5.822891235E-2,6.810836792E-2,9.834548950E0,9.834957164E0
9.216067083E0,5.328918457E-2,5.254074097E-2,9.860445099E0,9.860729071E0
9.226061083E0,6.706054688E-2,5.583389282E-2,9.834998016E0,9.835385123E0
9.236055083E0,5.837860107E-2,6.915618896E-2,9.925410004E0,9.925822605E0
9.246049083E0,7.364685059E-2,6.376739502E-2,9.834249573E0,9.834732065E0
9.256043083E0,5.284011841E-2,7.439529419E-2,9.947414246E0,9.947832775E0
9.266037083E0,4.475692749E-2,7.065307617E-2,9.827962646E0,9.828318514E0
9.276031083E0,4.550537109E-2,5.912704468E-2,9.884095917E0,9.884377514E0
9.286025083E0,6.002517700E-2,7.798782349E-2,9.827812958E0,9.828305686E0
9.296019083E0,8.562194824E-2,6.915618896E-2,9.792336731E0,9.792955241E0
9.306012083E0,8.217910767E-2,7.050338745E-2,9.823621674E0,9.824218387E0
9.316006083E0,5.298980713E-2,7.813751221E-2,9.795330505E0,9.795785476E0
9.326000083E0,6.930587769E-2,8.666976929E-2,9.780661011E0,9.781290547E0
9.335994083E0,4.161346436E-2,8.696914673E-2,9.851912842E0,9.852384582E0
9.345988083E0,5.673202515E-2,6.930587769E-2,9.773625641E0,9.774036014E0
9.355982083E0,4.954696655E-2,6.137237549E-2,9.829908600E0,9.830225051E0
9.365976083E0,4.071533203E-2,7.499404907E-2,9.850715332E0,9.851084935E0
9.375970083E0,5.119354248E-2,9.101074219E-2,9.827812958E0,9.828367681E0
9.385964083E0,3.682342529E-2,1.019380188E-1,9.895322571E0,9.895916133E0
9.395958083E0,4.805007935E-2,7.738906860E-2,9.883497162E0,9.883916937E0
9.405952083E0,4.670288086E-2,7.200027466E-2,9.887089691E0,9.887462150E0
9.415946083E0,3.772155762E-2,9.595046997E-2,9.902807007E0,9.903343679E0
9.425940083E0,2.814147949E-2,9.759704590E-2,9.846823425E0,9.847347292E0
9.435934083E0,3.218307495E-2,8.846603394E-2,9.865983582E0,9.866432690E0
9.445928083E0,4.415817261E-2,8.816665649E-2,9.830357666E0,9.830852208E0
9.455922083E0,5.628295898E-2,8.652008057E-2,9.783056030E0,9.783600502E0
9.465915083E0,4.864883423E-2,8.532257080E-2,9.851763153E0,9.852252731E0
9.475909083E0,6.601272583E-2,7.020401001E-2,9.773775330E0,9.774250379E0
9.485903083E0,6.706054688E-2,6.092330933E-2,9.860445099E0,9.860861337E0
9.495897083E0,6.346801758E-2,7.604187012E-2,9.814640350E0,9.815140130E0
9.505891083E0,6.646179199E-2,5.568420410E-2,9.804311829E0,9.804695219E0
9.515885083E0,6.706054688E-2,8.232879639E-2,9.855655060E0,9.856227057E0
9.525879083E0,7.903564453E-2,7.873626709E-2,9.833650818E0,9.834283626E0
9.535873083E0,8.173004150E-2,6.137237549E-2,9.832004242E0,9.832535471E0
9.545867083E0,4.879852295E-2,7.529342651E-2,9.907597046E0,9.908003311E0
9.555861083E0,5.927673340E-2,8.487350464E-2,9.821226654E0,9.821772255E0
9.565855083E0,5.822891235E-2,8.083190918E-2,9.909542999E0,9.910043736E0
9.575849083E0,3.802093506E-2,9.430389404E-2,9.855954437E0,9.856478919E0
9.585843083E0,6.137237549E-2,7.888595581E-2,9.843380585E0,9.843887997E0
9.595837083E0,4.415817261E-2,8.966354370E-2,9.861941986E0,9.862448440E0
9.605831083E0,5.972579956E-2,9.520202637E-2,9.788295135E0,9.788940303E0
9.615825083E0,5.643264771E-2,8.592132568E-2,9.822723541E0,9.823261418E0
9.625818083E0,4.101470947E-2,8.173004150E-2,9.814790039E0,9.815216020E0
9.635812083E0,5.433700562E-2,8.457412720E-2,9.790091400E0,9.790607485E0
9.645806083E0,3.382965088E-2,8.427474976E-2,9.821526031E0,9.821945849E0
9.655800083E0,2.844085693E-2,7.559280396E-2,9.824070740E0,9.824402733E0
9.665794083E0,5.239105225E-2,6.002517700E-2,9.818681946E0,9.819005194E0
9.675788083E0,3.996688843E-2,7.304809570E-2,9.854158173E0,9.854509966E0
9.685782083E0,3.532653809E-2,7.080276489E-2,9.837542725E0,9.837860939E0
9.695776083E0,2.963836670E-2,5.927673340E-2,9.823621674E0,9.823845222E0
9.705770083E0,2.185455322E-2,7.394622803E-2,9.941426697E0,9.941725727E0
9.715764083E0,5.867797852E-2,7.963439941E-2,9.812544708E0,9.813043279E0
9.725758083E0,4.011657715E-2,8.547225952E-2,9.934990082E0,9.935438731E0
9.735752083E0,3.203338623E-2,7.738906860E-2,9.825567627E0,9.825924608E0
9.745746083E0,3.442840576E-2,6.691085815E-2,9.844578094E0,9.844865679E0
9.755740083E0,4.490661621E-2,9.026229858E-2,9.845326538E0,9.845842703E0
9.765734083E0,6.451583862E-2,8.412506104E-2,9.782606964E0,9.783181401E0
9.775728083E0,7.185058594E-2,8.382568359E-2,9.836794281E0,9.837413836E0
9.785722083E0,6.915618896E-2,9.340576172E-2,9.800120544E0,9.800809655E0
9.795716167E0,9.310638428E-2,8.681945801E-2,9.791588287E0,9.792415821E0
9.805709167E0,8.367599487E-2,7.963439941E-2,9.839189301E0,9.839867347E0
9.815703167E0,9.310638428E-2,7.619155884E-2,9.814191284E0,9.814928656E0
9.825697167E0,7.978408813E-2,8.053253174E-2,9.835746460E0,9.836399718E0
9.835691167E0,6.795867920E-2,9.864486694E-2,9.857451324E0,9.858179132E0
9.845685167E0,6.990463257E-2,9.310638428E-2,9.836494904E0,9.837183918E0
9.855679167E0,5.448669434E-2,7.634124756E-2,9.893825684E0,9.894270233E0
9.865673167E0,5.089416504E-2,7.738906860E-2,9.879455566E0,9.879889755E0
9.875667167E0,5.209167480E-2,7.214996338E-2,9.879305878E0,9.879706665E0
9.885661167E0,4.805007935E-2,6.526428223E-2,9.922116852E0,9.922447836E0
9.895655167E0,5.703140259E-2,5.927673340E-2,9.839039612E0,9.839383456E0
9.905649167E0,4.520599365E-2,6.840774536E-2,9.869127045E0,9.869467657E0
9.915643167E0,4.430786133E-2,7.619155884E-2,9.842183075E0,9.842577712E0
9.925637167E0,3.772155762E-2,5.313949585E-2,9.790839844E0,9.791056714E0
9.935631167E0,4.819976807E-2,6.227050781E-2,9.865235138E0,9.865549410E0
9.945625167E0,4.999603271E-2,6.840774536E-2,9.815837860E0,9.816203549E0
9.955619167E0,4.805007935E-2,7.200027466E-2,9.783804474E0,9.784187387E0
9.965613167E0,1.197509766E-2,8.906478882E-2,9.882000275E0,9.882408885E0
9.975606167E0,3.906875610E-2,7.364685059E-2,9.752070465E0,9.752426805E0
9.985600167E0,3.367996216E-2,8.247848511E-2,9.879754944E0,9.880156618E0
9.995594167E0,3.757186890E-2,8.831634521E-2,9.846823425E0,9.847291150E0
1.000558817E1,2.754272461E-2,8.053253174E-2,9.846074982E0,9.846442842E0
1.001558217E1,7.185058594E-3,8.577163696E-2,9.879605255E0,9.879980182E0
1.002557617E1,2.395019531E-2,9.145980835E-2,9.884395294E0,9.884847436E0
1.003557017E1,4.086502075E-2,9.894424438E-2,9.866282959E0,9.866863703E0
1.004556417E1,3.472778320E-2,8.202941895E-2,9.895921326E0,9.896322232E0
1.005555817E1,3.682342529E-2,6.915618896E-2,9.827363892E0,9.827676206E0
1.006555217E1,2.784210205E-2,6.511459351E-2,9.856104126E0,9.856358538E0
1.007554617E1,3.697311401E-2,7.873626709E-2,9.803563385E0,9.803949278E0
1.008554017E1,7.349716187E-2,6.840774536E-2,9.806557159E0,9.807071162E0
1.009553417E1,7.394622803E-2,8.023315430E-2,9.831704865E0,9.832310306E0
1.010552817E1,6.361770630E-2,8.262817383E-2,9.771529999E0,9.772086427E0
1.011552217E1,6.646179199E-2,7.304809570E-2,9.836794281E0,9.837290019E0
1.012551617E1,7.259902954E-2,6.331832886E-2,9.832602997E0,9.833074876E0
1.013550917E1,8.726852417E-2,6.750961304E-2,9.773625641E0,9.774248386E0
1.014550317E1,4.266128540E-2,7.948471069E-2,9.879455566E0,9.879867413E0
1.015549717E1,5.179229736E-2,8.547225952E-2,9.814939728E0,9.815448528E0
1.016549117E1,4.805007935E-2,7.888595581E-2,9.835896149E0,9.836329847E0
1.017548517E1,3.817062378E-2,8.936416626E-2,9.910890198E0,9.911366579E0
1.018547917E1,2.439926147E-2,8.113128662E-2,9.796827393E0,9.797193709E0
1.019547317E1,2.619552612E-2,7.963439941E-2,9.918823700E0,9.919177962E0
1.020546717E1,4.924758911E-2,8.906478882E-2,9.833052063E0,9.833578735E0
1.021546117E1,6.735992432E-2,8.502319336E-2,9.834548950E0,9.835147145E0
1.022545517E1,4.056564331E-2,9.265731812E-2,9.849068756E0,9.849588129E0
1.023544917E1,3.906875610E-2,7.738906860E-2,9.791588287E0,9.791972050E0
1.024544317E1,5.224136353E-2,5.763015747E-2,9.809850311E0,9.810158690E0
1.025543717E1,5.313949585E-2,6.945556641E-2,9.810598755E0,9.810988524E0
1.026543117E1,4.146377563E-2,7.858657837E-2,9.806856537E0,9.807259058E0
1.027542517E1,4.206253052E-2,8.277786255E-2,9.840536499E0,9.840974546E0
1.028541917E1,4.266128540E-2,6.616241455E-2,9.844278717E0,9.844593486E0
1.029541317E1,5.403762817E-2,6.301895142E-2,9.790390778E0,9.790742721E0
1.030540617E1,1.960922241E-2,8.068222046E-2,9.886640625E0,9.886989278E0
1.031540017E1,4.236190796E-2,7.499404907E-2,9.823921051E0,9.824298624E0
1.032539417E1,5.328918457E-2,8.202941895E-2,9.893675995E0,9.894159553E0
1.033538817E1,3.427871704E-2,9.086105347E-2,9.884844360E0,9.885321380E0
1.034538217E1,6.376739502E-2,7.783813477E-2,9.867330780E0,9.867843826E0
1.035537617E1,5.448669434E-2,7.738906860E-2,9.904303894E0,9.904756105E0
1.036537017E1,6.586303711E-2,8.607101440E-2,9.819280701E0,9.819878800E0
1.037536417E1,6.840774536E-2,7.499404907E-2,9.816586304E0,9.817111102E0
1.038535817E1,5.164260864E-2,8.068222046E-2,9.841434631E0,9.841900842E0
1.039535217E1,4.236190796E-2,7.993377686E-2,9.763746185E0,9.764165275E0
1.040534617E1,4.505630493E-2,8.831634521E-2,9.845326538E0,9.845825739E0
1.041534017E1,4.131408691E-2,7.888595581E-2,9.781708832E0,9.782114164E0
1.042533417E1,5.358856201E-2,7.559280396E-2,9.828411713E0,9.828848498E0
1.043532817E1,5.044509888E-2,8.726852417E-2,9.830207977E0,9.830724764E0
1.044532217E1,7.244934082E-2,7.469467163E-2,9.838889923E0,9.839440183E0
1.045531617E1,4.909790039E-2,7.619155884E-2,9.815388794E0,9.815807299E0
1.046531017E1,4.415817261E-2,8.487350464E-2,9.908495178E0,9.908957067E0
1.047530317E1,6.496490479E-2,7.244934082E-2,9.821975098E0,9.822457135E0
1.048529717E1,5.448669434E-2,8.128097534E-2,9.918823700E0,9.919306376E0
1.049529117E1,6.526428223E-2,8.232879639E-2,9.891580353E0,9.892138259E0
1.050528517E1,6.855743408E-2,7.274871826E-2,9.852960663E0,9.853467731E0
1.051527917E1,6.795867920E-2,7.768844604E-2,9.921967163E0,9.922504032E0
1.052527317E1,4.999603271E-2,7.664062500E-2,9.790839844E0,9.791267448E0
1.053526717E1,4.191284180E-2,9.220825195E-2,9.865983582E0,9.866503488E0
1.054526117E1,5.149291992E-2,7.978408813E-2,9.797276459E0,9.797736628E0
1.055525517E1,6.496490479E-2,5.748046875E-2,9.792037354E0,9.792421558E0
1.056524917E1,4.640350342E-2,7.259902954E-2,9.810748444E0,9.811126792E0
1.057524317E1,5.089416504E-2,7.050338745E-2,9.785001984E0,9.785388330E0
1.058523717E1,6.286926270E-2,7.963439941E-2,9.804012451E0,9.804537436E0
1.059523117E1,5.688171387E-2,8.562194824E-2,9.860445099E0,9.860980894E0
1.060522517E1,4.251159668E-2,8.547225952E-2,9.767488403E0,9.767954876E0
1.061521917E1,3.562591553E-2,8.367599487E-2,9.881102142E0,9.881520653E0
1.062521317E1,3.951782227E-2,8.038284302E-2,9.865235138E0,9.865641763E0
1.063520617E1,3.472778320E-2,6.541397095E-2,9.839338989E0,9.839617714E0
1.064520017E1,1.975891113E-2,8.023315430E-2,9.965376892E0,9.965719461E0
1.065519417E1,1.960922241E-2,7.394622803E-2,9.821376343E0,9.821674289E0
1.066518817E1,2.409988403E-2,7.694000244E-2,9.933343506E0,9.933670710E0
1.067518217E1,1.002914429E-2,8.981323242E-2,9.840087433E0,9.840502410E0
1.068517617E1,3.023712158E-2,7.978408813E-2,9.842183075E0,9.842552894E0
1.069517017E1,3.248245239E-2,7.978408813E-2,9.822873230E0,9.823250944E0
1.070516417E1,5.583389282E-2,7.349716187E-2,9.779613190E0,9.780048742E0
1.071515817E1,6.331832886E-2,7.738906860E-2,9.761201477E0,9.761713607E0
1.072515217E1,6.496490479E-2,9.624984741E-2,9.833201752E0,9.833887388E0
1.073514617E1,8.951385498E-2,7.903564453E-2,9.769284668E0,9.770014447E0
1.074514017E1,1.143621826E-1,8.906478882E-2,9.840686188E0,9.841753700E0
1.075513417E1,1.088237000E-1,9.415420532E-2,9.851763153E0,9.852814057E0
1.076512817E1,1.061293030E-1,7.334747314E-2,9.798324280E0,9.799173535E0
1.077512217E1,8.038284302E-2,7.694000244E-2,9.916278992E0,9.916903257E0
1.078511617E1,8.113128662E-2,8.502319336E-2,9.843979340E0,9.844680821E0
1.079511017E1,6.795867920E-2,6.915618896E-2,9.887688446E0,9.888163822E0
1.080510392E1,5.328918457E-2,6.780899048E-2,9.918524323E0,9.918899260E0
1.081509692E1,4.385879517E-2,5.822891235E-2,9.850715332E0,9.850985065E0
1.082509092E1,4.879852295E-2,7.289840698E-2,9.933642883E0,9.934030220E0
1.083508492E1,2.619552612E-2,6.406677246E-2,9.823322296E0,9.823566139E0
1.084507892E1,3.757186890E-2,6.047424316E-2,9.824968872E0,9.825226823E0
1.085507292E1,3.113525391E-2,8.173004150E-2,9.817334747E0,9.817724316E0
1.086506692E1,5.538482666E-2,7.424560547E-2,9.756710815E0,9.757150497E0
1.087506092E1,2.454895020E-2,8.637039185E-2,9.805209961E0,9.805621086E0
1.088505492E1,3.068618774E-2,9.385482788E-2,9.770482178E0,9.770981136E0
1.089504892E1,3.053649902E-2,8.487350464E-2,9.785301361E0,9.785717077E0
1.090504292E1,1.736389160E-2,8.876541138E-2,9.823322296E0,9.823738684E0
1.091503692E1,2.320175171E-2,8.726852417E-2,9.854307861E0,9.854721586E0
1.092503092E1,3.832031250E-2,8.532257080E-2,9.777966614E0,9.778413956E0
1.093502492E1,4.415817261E-2,8.771759033E-2,9.958640900E0,9.959125107E0
1.094501892E1,5.074447632E-2,8.187973022E-2,9.796677704E0,9.797151286E0
1.095501292E1,2.799179077E-2,7.873626709E-2,9.955497437E0,9.955848138E0
1.096500692E1,3.921844482E-2,8.008346558E-2,9.870923309E0,9.871326072E0
1.097499992E1,5.373825073E-2,8.247848511E-2,9.888736267E0,9.889226232E0
1.098499392E1,5.792953491E-2,9.325607300E-2,9.878108368E0,9.878718412E0
1.099498792E1,7.065307617E-2,6.346801758E-2,9.835896149E0,9.836354665E0
1.100498192E1,7.170089722E-2,5.897735596E-2,9.800270233E0,9.800709974E0
1.101497592E1,7.289840698E-2,7.993377686E-2,9.841883698E0,9.842478260E0
1.102496992E1,8.217910767E-2,6.167175293E-2,9.726623383E0,9.727166043E0
1.103496392E1,6.286926270E-2,4.026626587E-2,9.849517822E0,9.849800772E0
1.104495792E1,6.481521606E-2,6.092330933E-2,9.759405212E0,9.759810590E0
1.105495192E1,7.753875732E-2,7.454498291E-2,9.816735992E0,9.817325234E0
1.106494592E1,5.508544922E-2,7.589218140E-2,9.837243347E0,9.837690313E0
1.107493992E1,5.867797852E-2,6.047424316E-2,9.862391052E0,9.862751011E0
1.108493392E1,7.200027466E-2,7.798782349E-2,9.805359650E0,9.805934122E0
1.109492792E1,5.628295898E-2,1.025367737E-1,9.914333038E0,9.915023003E0
1.110492192E1,4.550537109E-2,9.714797974E-2,9.836644592E0,9.837229554E0
1.111491592E1,3.367996216E-2,9.954299927E-2,9.947863312E0,9.948418348E0
1.112490992E1,3.787124634E-2,9.565109253E-2,9.860744476E0,9.861281103E0
1.113490392E1,4.939727783E-2,8.382568359E-2,9.896370392E0,9.896848679E0
1.114489792E1,5.568420410E-2,9.056167603E-2,9.898466034E0,9.899036921E0
1.115489092E1,4.834945679E-2,7.948471069E-2,9.800419922E0,9.800861500E0
1.116488492E1,2.634521484E-2,6.825805664E-2,9.845625916E0,9.845897770E0
1.117487892E1,2.140548706E-2,7.244934082E-2,9.769584045E0,9.769876126E0
1.118487292E1,3.727249146E-2,7.110214233E-2,9.764794006E0,9.765124000E0
1.119486692E1,4.834945679E-2,8.292755127E-2,9.807006226E0,9.807476014E0
1.120486092E1,3.742218018E-2,7.155120850E-2,9.762099609E0,9.762433548E0
1.121485492E1,4.056564331E-2,7.125183105E-2,9.848320312E0,9.848661603E0
1.122484892E1,4.730163574E-2,7.529342651E-2,9.823771362E0,9.824173773E0
1.123484292E1,5.328918457E-2,6.526428223E-2,9.832303619E0,9.832664625E0
1.124483692E1,6.301895142E-2,8.023315430E-2,9.899214478E0,9.899740200E0
1.125483092E1,5.343887329E-2,7.664062500E-2,9.860744476E0,9.861187105E0
1.126482492E1,4.790039063E-2,7.514373779E-2,9.901310120E0,9.901711120E0
1.127481892E1,5.852828979E-2,8.666976929E-2,9.930948486E0,9.931499134E0
1.128481292E1,7.409591675E-2,8.322692871E-2,9.865833893E0,9.866463162E0
1.129480692E1,6.541397095E-2,8.427474976E-2,9.916278992E0,9.916852841E0
1.130480092E1,6.691085815E-2,8.981323242E-2,9.876761169E0,9.877396149E0
1.131479492E1,8.502319336E-2,7.738906860E-2,9.812694397E0,9.813367890E0
1.132478892E1,6.601272583E-2,7.843688965E-2,9.842931519E0,9.843465391E0
1.133478192E1,5.777984619E-2,7.933502197E-2,9.778864746E0,9.779357253E0
1.134477592E1,5.792953491E-2,7.170089722E-2,9.777966614E0,9.778401094E0
1.135476992E1,4.071533203E-2,6.361770630E-2,9.806407471E0,9.806698345E0
1.136476392E1,5.688171387E-2,6.945556641E-2,9.780211945E0,9.780623972E0
1.137475792E1,4.056564331E-2,6.735992432E-2,9.843829651E0,9.844143697E0
1.138475192E1,4.909790039E-2,7.140151978E-2,9.833351440E0,9.833733235E0
1.139474592E1,5.613327026E-2,7.349716187E-2,9.806706848E0,9.807142906E0
1.140473992E1,1.901046753E-2,8.756790161E-2,9.896220703E0,9.896626382E0
1.141473392E1,3.936813354E-2,9.580078125E-2,9.815987549E0,9.816533971E0
1.142472792E1,4.191284180E-2,7.813751221E-2,9.907147980E0,9.907544764E0
1.143472192E1,4.505630493E-2,9.041198730E-2,9.889784088E0,9.890299981E0
1.144471592E1,5.628295898E-2,8.457412720E-2,9.843530273E0,9.844054490E0
1.145470992E1,4.700225830E-2,8.322692871E-2,9.907447357E0,9.907908410E0
1.146470392E1,3.936813354E-2,8.996292114E-2,9.812395020E0,9.812886385E0
1.147469792E1,4.430786133E-2,8.277786255E-2,9.820478210E0,9.820927026E0
1.148469192E1,2.559677124E-2,8.936416626E-2,9.834548950E0,9.834988267E0
1.149468592E1,4.730163574E-2,7.993377686E-2,9.757908325E0,9.758350359E0
1.150467892E1,5.343887329E-2,8.562194824E-2,9.811197510E0,9.811716639E0
1.151467292E1,4.041595459E-2,8.637039185E-2,9.795031128E0,9.795495296E0
1.152466692E1,4.161346436E-2,7.768844604E-2,9.808802490E0,9.809198411E0
1.153466092E1,5.029541016E-2,8.247848511E-2,9.878557434E0,9.879029776E0
1.154465492E1,6.077362061E-2,7.214996338E-2,9.821076965E0,9.821530014E0
1.155464892E1,5.478607178E-2,6.361770630E-2,9.841135254E0,9.841493373E0
1.156464292E1,5.792953491E-2,7.274871826E-2,9.923164673E0,9.923600422E0
1.157463692E1,6.496490479E-2,6.721023560E-2,9.806856537E0,9.807302014E0
1.158463092E1,5.748046875E-2,7.319778442E-2,9.929152222E0,9.929588398E0
1.159462492E1,5.448669434E-2,8.816665649E-2,9.867929535E0,9.868473816E0
1.160461892E1,5.493576050E-2,7.963439941E-2,9.842183075E0,9.842658546E0
1.161461292E1,4.490661621E-2,8.487350464E-2,9.906100159E0,9.906565523E0
1.162460692E1,6.212081909E-2,8.397537231E-2,9.782756653E0,9.783314295E0
1.163460092E1,3.742218018E-2,6.885681152E-2,9.808054047E0,9.808367135E0
1.164459492E1,2.499801636E-2,8.442443848E-2,9.802964630E0,9.803360032E0
1.165458892E1,5.583389282E-2,6.870712280E-2,9.742640076E0,9.743042324E0
1.166458292E1,6.092330933E-2,7.244934082E-2,9.833351440E0,9.833807051E0
1.167457692E1,4.400848389E-2,7.439529419E-2,9.772128754E0,9.772511028E0
1.168456992E1,4.535568237E-2,6.256988525E-2,9.848619690E0,9.848922881E0
1.169456392E1,4.251159668E-2,6.840774536E-2,9.840386810E0,9.840716408E0
1.170455792E1,4.939727783E-2,7.349716187E-2,9.840985565E0,9.841383989E0
1.171455192E1,6.256988525E-2,8.113128662E-2,9.888436890E0,9.888967661E0
1.172454592E1,4.475692749E-2,8.921447754E-2,9.896071014E0,9.896574353E0
1.173453992E1,6.092330933E-2,8.068222046E-2,9.842183075E0,9.842702320E0
1.174453392E1,4.251159668E-2,8.008346558E-2,9.932894440E0,9.933308238E0
1.175452792E1,4.819976807E-2,6.286926270E-2,9.870623932E0,9.870941828E0
1.176452192E1,5.463638306E-2,7.589218140E-2,9.851164398E0,9.851608232E0
1.177451592E1,4.385879517E-2,7.274871826E-2,9.898466034E0,9.898830527E0
1.178450992E1,4.939727783E-2,8.173004150E-2,9.760303345E0,9.760770527E0
1.179450392E1,5.328918457E-2,7.828720093E-2,9.860894165E0,9.861348912E0
1.180449867E1,5.792953491E-2,8.502319336E-2,9.747430115E0,9.747973052E0
1.181449267E1,7.379653931E-2,7.289840698E-2,9.786349182E0,9.786898918E0
1.182448667E1,5.478607178E-2,8.831634521E-2,9.812844086E0,9.813394435E0
1.183448067E1,6.212081909E-2,8.367599487E-2,9.788893890E0,9.789448619E0
1.184447467E1,7.649093628E-2,8.247848511E-2,9.836494904E0,9.837138077E0
1.185446767E1,7.274871826E-2,7.679031372E-2,9.885592804E0,9.886158719E0
1.186446167E1,7.334747314E-2,7.334747314E-2,9.784702606E0,9.785252413E0
1.187445567E1,5.254074097E-2,8.083190918E-2,9.940977631E0,9.941445095E0
1.188444967E1,7.349716187E-2,7.095245361E-2,9.845027161E0,9.845557164E0
1.189444367E1,8.966354370E-2,7.050338745E-2,9.918224945E0,9.918880801E0
1.190443767E1,6.361770630E-2,7.304809570E-2,9.887089691E0,9.887564199E0
1.191443167E1,6.930587769E-2,6.915618896E-2,9.873767395E0,9.874252805E0
1.192442567E1,5.284011841E-2,7.110214233E-2,9.868677979E0,9.869075572E0
1.193441967E1,5.643264771E-2,7.679031372E-2,9.854307861E0,9.854768634E0
1.194441367E1,6.242019653E-2,7.185058594E-2,9.758058014E0,9.758522172E0
1.195440767E1,3.323089600E-2,7.738906860E-2,9.847272491E0,9.847632654E0
1.196440167E1,4.819976807E-2,6.990463257E-2,9.731712799E0,9.732083224E0
1.197439567E1,4.161346436E-2,7.634124756E-2,9.792785797E0,9.793171771E0
1.198438967E1,4.475692749E-2,9.026229858E-2,9.822873230E0,9.823389891E0
1.199438367E1,5.104385376E-2,7.574249268E-2,9.767488403E0,9.767915443E0
1.200437767E1,4.445755005E-2,7.619155884E-2,9.873917084E0,9.874311126E0
1.201437167E1,3.562591553E-2,8.352630615E-2,9.839338989E0,9.839758005E0
1.202436567E1,4.131408691E-2,8.232879639E-2,9.835297394E0,9.835728733E0
1.203435867E1,2.993774414E-2,8.696914673E-2,9.927655334E0,9.928081403E0
1.204435267E1,3.817062378E-2,8.876541138E-2,9.859846344E0,9.860319783E0
1.205434667E1,3.607498169E-2,7.424560547E-2,9.917925568E0,9.918269072E0
1.206434067E1,2.335144043E-2,8.173004150E-2,9.924511871E0,9.924875867E0
1.207433467E1,4.550537109E-2,7.634124756E-2,9.840536499E0,9.840937827E0
1.208432867E1,4.505630493E-2,8.726852417E-2,9.933044128E0,9.933529661E0
1.209432267E1,4.655319214E-2,8.232879639E-2,9.794282684E0,9.794739329E0
1.210431667E1,2.888992310E-2,6.406677246E-2,9.820927277E0,9.821178735E0
1.211431067E1,1.916015625E-2,7.140151978E-2,9.808802490E0,9.809081077E0
1.212430467E1,4.146377563E-2,7.185058594E-2,9.727820892E0,9.728174601E0
1.213429867E1,5.373825073E-2,7.604187012E-2,9.816137238E0,9.816578856E0
1.214429267E1,3.098556519E-2,7.544311523E-2,9.768386536E0,9.768727004E0
1.215428667E1,7.289840698E-2,7.649093628E-2,9.822573853E0,9.823142172E0
1.216428067E1,5.164260864E-2,8.412506104E-2,9.859996033E0,9.860490137E0
1.217427467E1,5.328918457E-2,8.187973022E-2,9.846673737E0,9.847158357E0
1.218426867E1,5.478607178E-2,7.229965210E-2,9.844428406E0,9.844846337E0
1.219426267E1,6.421646118E-2,7.110214233E-2,9.934840393E0,9.935302356E0
1.220425667E1,7.259902954E-2,7.379653931E-2,9.819879456E0,9.820425096E0
1.221424967E1,5.658233643E-2,8.517288208E-2,9.963580627E0,9.964105324E0
1.222424367E1,6.107299805E-2,8.382568359E-2,9.850565643E0,9.851111620E0
1.223423767E1,6.286926270E-2,6.122268677E-2,9.871372375E0,9.871762423E0
1.224423167E1,4.805007935E-2,7.529342651E-2,9.885892181E0,9.886295673E0
1.225422567E1,6.361770630E-2,7.319778442E-2,9.749825134E0,9.750307445E0
1.226421967E1,6.077362061E-2,6.646179199E-2,9.832602997E0,9.833015422E0
1.227421367E1,5.957611084E-2,6.855743408E-2,9.743538208E0,9.743961527E0
1.228420767E1,5.104385376E-2,6.810836792E-2,9.737550659E0,9.737922626E0
1.229420167E1,5.882766724E-2,7.918533325E-2,9.824669495E0,9.825164716E0
1.230419567E1,4.954696655E-2,7.185058594E-2,9.757459259E0,9.757849589E0
1.231418967E1,6.092330933E-2,6.915618896E-2,9.852960663E0,9.853391703E0
1.232418367E1,5.224136353E-2,8.472381592E-2,9.863887939E0,9.864390126E0
1.233417767E1,6.960525513E-2,8.637039185E-2,9.848919067E0,9.849543722E0
1.234417167E1,5.852828979E-2,8.756790161E-2,9.912836151E0,9.913395698E0
1.235416567E1,5.822891235E-2,8.711883545E-2,9.913135529E0,9.913689339E0
1.236415967E1,5.373825073E-2,8.472381592E-2,9.865833893E0,9.866344020E0
1.237415367E1,3.817062378E-2,9.101074219E-2,9.958640900E0,9.959129908E0
1.238414767E1,5.074447632E-2,8.592132568E-2,9.855355682E0,9.855860850E0
1.239414167E1,4.805007935E-2,7.634124756E-2,9.887389069E0,9.887800533E0
1.240413467E1,4.715194702E-2,8.098159790E-2,9.871971130E0,9.872415881E0
1.241412867E1,5.568420410E-2,7.559280396E-2,9.748178558E0,9.748630684E0
1.242412267E1,3.203338623E-2,7.544311523E-2,9.823022919E0,9.823364854E0
1.243411667E1,2.963836670E-2,8.816665649E-2,9.726324005E0,9.726768757E0
1.244411067E1,4.745132446E-2,6.960525513E-2,9.749376068E0,9.749740009E0
1.245410467E1,2.664459229E-2,7.723937988E-2,9.795031128E0,9.795371900E0
1.246409867E1,3.966751099E-2,7.604187012E-2,9.749376068E0,9.749753309E0
1.247409267E1,4.086502075E-2,8.801696777E-2,9.873917084E0,9.874393931E0
1.248408667E1,4.445755005E-2,9.160949707E-2,9.844727783E0,9.845254385E0
1.249408067E1,5.852828979E-2,8.023315430E-2,9.859846344E0,9.860346487E0
1.250407467E1,3.996688843E-2,9.475296021E-2,9.917626190E0,9.918159342E0
1.251406867E1,5.343887329E-2,9.235794067E-2,9.875413971E0,9.875990421E0
1.252406267E1,5.867797852E-2,8.652008057E-2,9.910141754E0,9.910693135E0
1.253405667E1,5.358856201E-2,8.382568359E-2,9.944869537E0,9.945367193E0
1.254405067E1,6.661148071E-2,6.960525513E-2,9.845326538E0,9.845797917E0
1.255404467E1,6.286926270E-2,7.753875732E-2,9.912387085E0,9.912889716E0
1.256403867E1,5.598358154E-2,6.301895142E-2,9.827513580E0,9.827875087E0
1.257403267E1,6.795867920E-2,5.104385376E-2,9.788444824E0,9.788813816E0
1.258402567E1,4.011657715E-2,6.601272583E-2,9.807604980E0,9.807909179E0
1.259401967E1,5.493576050E-2,6.017486572E-2,9.747729492E0,9.748070025E0
1.260401367E1,5.119354248E-2,6.601272583E-2,9.762398987E0,9.762756395E0
1.261400767E1,5.089416504E-2,7.664062500E-2,9.820478210E0,9.820909137E0
1.262400167E1,6.227050781E-2,7.095245361E-2,9.743837585E0,9.744294883E0
1.263399567E1,4.655319214E-2,9.490264893E-2,9.905800781E0,9.906364764E0
1.264398967E1,6.391708374E-2,8.951385498E-2,9.794282684E0,9.794900276E0
1.265398367E1,6.750961304E-2,8.622070312E-2,9.859546967E0,9.860155067E0
1.266397767E1,5.748046875E-2,9.654922485E-2,9.918823700E0,9.919460134E0
1.267397167E1,6.765930176E-2,9.819580078E-2,9.831255798E0,9.831978985E0
1.268396567E1,6.077362061E-2,9.190887451E-2,9.934990082E0,9.935601069E0
1.269395967E1,5.643264771E-2,8.517288208E-2,9.906399536E0,9.906926407E0
1.270395367E1,6.735992432E-2,7.140151978E-2,9.854457550E0,9.854946430E0
1.271394767E1,4.505630493E-2,8.801696777E-2,9.919871521E0,9.920364310E0
1.272394167E1,6.137237549E-2,8.053253174E-2,9.764195251E0,9.764720220E0
1.273393567E1,5.553451538E-2,8.427474976E-2,9.831704865E0,9.832222885E0
1.274392967E1,4.296066284E-2,8.831634521E-2,9.765542450E0,9.766036286E0
1.275392367E1,5.418731689E-2,8.367599487E-2,9.793085175E0,9.793592557E0
1.276391767E1,5.658233643E-2,9.190887451E-2,9.748328247E0,9.748925706E0
1.277391067E1,3.472778320E-2,9.385482788E-2,9.829758911E0,9.830268308E0
1.278390467E1,5.074447632E-2,7.783813477E-2,9.763746185E0,9.764188310E0
1.279389867E1,4.849914551E-2,7.948471069E-2,9.894723816E0,9.895161918E0
1.280389254E1,6.152206421E-2,6.361770630E-2,9.793234863E0,9.793634732E0
1.281388654E1,5.463638306E-2,6.316864014E-2,9.898016968E0,9.898369326E0
1.282388054E1,3.652404785E-2,6.780899048E-2,9.890981598E0,9.891281466E0
1.283387454E1,4.834945679E-2,6.331832886E-2,9.883048096E0,9.883369190E0
1.284386854E1,5.284011841E-2,5.837860107E-2,9.930349731E0,9.930661908E0
1.285386254E1,5.403762817E-2,7.379653931E-2,9.895771637E0,9.896194333E0
1.286385654E1,5.972579956E-2,7.589218140E-2,9.865384827E0,9.865857518E0
1.287385054E1,4.879852295E-2,8.202941895E-2,9.924960938E0,9.925419877E0
1.288384454E1,5.448669434E-2,7.289840698E-2,9.728719025E0,9.729144713E0
1.289383854E1,4.550537109E-2,8.187973022E-2,9.886640625E0,9.887084397E0
1.290383254E1,5.104385376E-2,9.295669556E-2,9.713899841E0,9.714478707E0
1.291382654E1,5.972579956E-2,8.023315430E-2,9.779164124E0,9.779675633E0
1.292382054E1,4.340972900E-2,8.786727905E-2,9.777218170E0,9.777709354E0
1.293381454E1,6.271957397E-2,8.367599487E-2,9.791737976E0,9.792296360E0
1.294380854E1,7.020401001E-2,8.217910767E-2,9.806407471E0,9.807003084E0
1.295380154E1,6.691085815E-2,8.741821289E-2,9.896520081E0,9.897132348E0
1.296379554E1,7.544311523E-2,8.307723999E-2,9.776469727E0,9.777113777E0
1.297378954E1,5.254074097E-2,8.891510010E-2,9.956844635E0,9.957380253E0
1.298378354E1,6.975494385E-2,8.098159790E-2,9.800719299E0,9.801302085E0
1.299377754E1,8.038284302E-2,8.532257080E-2,9.945168915E0,9.945859746E0
1.300377154E1,6.212081909E-2,7.948471069E-2,9.873318329E0,9.873833685E0
1.301376554E1,7.454498291E-2,7.589218140E-2,9.932445374E0,9.933015035E0
1.302375954E1,7.050338745E-2,6.511459351E-2,9.835746460E0,9.836214671E0
1.303375354E1,5.837860107E-2,7.349716187E-2,9.912985840E0,9.913430191E0
1.304374754E1,5.463638306E-2,7.753875732E-2,9.714648285E0,9.715111358E0
1.305374154E1,3.727249146E-2,8.187973022E-2,9.901759186E0,9.902167869E0
1.306373554E1,3.802093506E-2,6.840774536E-2,9.674681396E0,9.674997950E0
1.307372954E1,5.269042969E-2,6.571334839E-2,9.832004242E0,9.832365023E0
1.308372354E1,3.622467041E-2,8.801696777E-2,9.760303345E0,9.760767418E0
1.309371754E1,3.936813354E-2,7.229965210E-2,9.787995758E0,9.788341946E0
1.310371154E1,4.415817261E-2,7.993377686E-2,9.859546967E0,9.859969865E0
1.311370554E1,5.104385376E-2,8.367599487E-2,9.860445099E0,9.860932243E0
1.312369954E1,5.658233643E-2,7.619155884E-2,9.814340973E0,9.814799817E0
1.313369354E1,3.203338623E-2,9.086105347E-2,9.980196075E0,9.980661079E0
1.314368754E1,5.059478760E-2,8.307723999E-2,9.825567627E0,9.826049097E0
1.315368054E1,5.508544922E-2,8.128097534E-2,9.944121094E0,9.944605841E0
1.316367454E1,5.433700562E-2,9.370513916E-2,9.929301910E0,9.929892728E0
1.317366854E1,4.640350342E-2,8.143066406E-2,9.865833893E0,9.866279068E0
1.318366254E1,3.832031250E-2,9.190887451E-2,9.924511871E0,9.925011414E0
1.319365654E1,5.284011841E-2,8.547225952E-2,9.802066498E0,9.802581559E0
1.320365054E1,4.251159668E-2,8.158035278E-2,9.806856537E0,9.807287990E0
1.321364454E1,4.490661621E-2,8.816665649E-2,9.801018677E0,9.801518100E0
1.322363854E1,5.388793945E-2,7.110214233E-2,9.715396729E0,9.715806349E0
1.323363254E1,4.101470947E-2,6.780899048E-2,9.804012451E0,9.804332737E0
1.324362654E1,3.622467041E-2,7.574249268E-2,9.784403229E0,9.784763446E0
1.325362054E1,5.209167480E-2,7.379653931E-2,9.775122528E0,9.775539878E0
1.326361454E1,4.715194702E-2,7.514373779E-2,9.874964905E0,9.875363373E0
1.327360854E1,5.418731689E-2,8.786727905E-2,9.815538483E0,9.816081328E0
1.328360254E1,6.092330933E-2,8.786727905E-2,9.870623932E0,9.871203023E0
1.329359654E1,6.346801758E-2,9.101074219E-2,9.925260315E0,9.925880488E0
1.330359054E1,7.304809570E-2,8.158035278E-2,9.834848328E0,9.835457946E0
1.331358454E1,4.700225830E-2,9.235794067E-2,9.967023468E0,9.967562190E0
1.332357854E1,5.972579956E-2,9.175918579E-2,9.872120819E0,9.872727910E0
1.333357254E1,6.676116943E-2,6.975494385E-2,9.885742493E0,9.886214009E0
1.334356554E1,6.631210327E-2,9.505233765E-2,9.912686462E0,9.913363967E0
1.335355954E1,6.212081909E-2,7.873626709E-2,9.762548676E0,9.763063814E0
1.336355354E1,5.493576050E-2,6.825805664E-2,9.825567627E0,9.825958289E0
1.337354754E1,3.802093506E-2,7.694000244E-2,9.777966614E0,9.778343237E0
1.338354154E1,6.227050781E-2,6.466552734E-2,9.756860504E0,9.757273499E0
1.339353554E1,4.340972900E-2,6.765930176E-2,9.788145447E0,9.788475544E0
1.340352954E1,4.924758911E-2,7.768844604E-2,9.805509338E0,9.805940761E0
1.341352354E1,5.493576050E-2,7.783813477E-2,9.790839844E0,9.791303364E0
1.342351754E1,5.044509888E-2,8.247848511E-2,9.917476501E0,9.917947750E0
1.343351154E1,5.852828979E-2,7.679031372E-2,9.793683929E0,9.794159853E0
1.344350554E1,3.996688843E-2,7.574249268E-2,9.920470276E0,9.920839923E0
1.345349954E1,5.822891235E-2,8.996292114E-2,9.886341248E0,9.886922028E0
1.346349354E1,5.688171387E-2,7.035369873E-2,9.864786072E0,9.865200931E0
1.347348754E1,4.535568237E-2,8.397537231E-2,9.939780121E0,9.940238320E0
1.348348154E1,5.059478760E-2,7.484436035E-2,9.863289185E0,9.863702908E0
1.349347554E1,5.493576050E-2,7.394622803E-2,9.838740234E0,9.839171478E0
1.350346954E1,2.185455322E-2,9.714797974E-2,9.886341248E0,9.886842702E0
1.351346354E1,4.640350342E-2,1.034349060E-1,9.731563110E0,9.732223417E0
1.352345754E1,3.562591553E-2,9.864486694E-2,9.817035370E0,9.817595605E0
1.353345154E1,4.041595459E-2,9.400451660E-2,9.750872955E0,9.751409831E0
1.354344554E1,5.508544922E-2,8.023315430E-2,9.762997742E0,9.763482815E0
1.355343854E1,2.844085693E-2,9.774673462E-2,9.775571594E0,9.776101641E0
1.356343254E1,5.209167480E-2,8.083190918E-2,9.798174591E0,9.798646471E0
1.357342654E1,5.448669434E-2,7.529342651E-2,9.838889923E0,9.839328881E0
1.358342054E1,6.541397095E-2,8.068222046E-2,9.883796539E0,9.884342297E0
1.359341454E1,7.020401001E-2,6.571334839E-2,9.845476227E0,9.845945814E0
1.360340854E1,5.628295898E-2,7.095245361E-2,9.951605530E0,9.952017617E0
1.361340254E1,6.316864014E-2,6.975494385E-2,9.889335022E0,9.889782768E0
1.362339654E1,7.993377686E-2,7.694000244E-2,9.910590820E0,9.911211812E0
1.363339054E1,6.047424316E-2,8.666976929E-2,9.938582611E0,9.939144485E0
1.364338454E1,6.481521606E-2,7.274871826E-2,9.848470001E0,9.848951962E0
1.365337854E1,6.047424316E-2,7.918533325E-2,9.892179108E0,9.892680878E0
1.366337254E1,6.750961304E-2,8.173004150E-2,9.844578094E0,9.845148816E0
1.367336654E1,6.451583862E-2,7.349716187E-2,9.740843811E0,9.741334728E0
1.368336054E1,5.792953491E-2,8.262817383E-2,9.818532257E0,9.819050816E0
1.369335454E1,6.466552734E-2,8.816665649E-2,9.721683655E0,9.722298497E0
1.370334854E1,4.760101318E-2,7.604187012E-2,9.778116302E0,9.778527836E0
1.371334254E1,6.346801758E-2,7.694000244E-2,9.836494904E0,9.837000556E0
1.372333654E1,5.673202515E-2,7.649093628E-2,9.758357391E0,9.758822079E0
1.373333054E1,5.074447632E-2,8.382568359E-2,9.911938019E0,9.912422360E0
1.374332454E1,5.074447632E-2,8.891510010E-2,9.824669495E0,9.825202877E0
1.375331754E1,7.140151978E-2,6.122268677E-2,9.901759186E0,9.902205884E0
1.376331154E1,4.326004028E-2,8.158035278E-2,9.912237396E0,9.912667501E0
1.377330554E1,6.391708374E-2,7.514373779E-2,9.888885956E0,9.889378010E0
1.378329954E1,4.206253052E-2,8.098159790E-2,9.893975372E0,9.894396189E0
1.379329354E1,4.655319214E-2,8.517288208E-2,9.924960938E0,9.925435569E0
1.380328692E1,5.852828979E-2,7.843688965E-2,9.833800507E0,9.834287484E0
1.381328092E1,4.610412598E-2,7.888595581E-2,9.890532532E0,9.890954572E0
1.382327492E1,3.532653809E-2,7.619155884E-2,9.773026886E0,9.773387725E0
1.383326892E1,5.358856201E-2,6.331832886E-2,9.759255524E0,9.759608052E0
1.384326292E1,4.445755005E-2,8.083190918E-2,9.797875214E0,9.798309496E0
1.385325692E1,5.373825073E-2,6.571334839E-2,9.716743927E0,9.717114725E0
1.386325092E1,3.502716064E-2,7.783813477E-2,9.800270233E0,9.800641934E0
1.387324492E1,4.086502075E-2,7.289840698E-2,9.800569611E0,9.800925916E0
1.388323892E1,4.969665527E-2,7.409591675E-2,9.779762878E0,9.780169831E0
1.389323292E1,6.017486572E-2,9.280700684E-2,9.926008759E0,9.926625007E0
1.390322692E1,5.792953491E-2,8.891510010E-2,9.805509338E0,9.806083577E0
1.391322092E1,5.972579956E-2,7.664062500E-2,9.934391327E0,9.934866481E0
1.392321492E1,5.298980713E-2,9.370513916E-2,9.921069031E0,9.921653052E0
1.393320892E1,5.852828979E-2,8.442443848E-2,9.867779846E0,9.868314554E0
1.394320292E1,5.134323120E-2,8.951385498E-2,9.927355957E0,9.927892282E0
1.395319592E1,8.068222046E-2,9.295669556E-2,9.896370392E0,9.897135823E0
1.396318992E1,8.382568359E-2,7.514373779E-2,9.839937744E0,9.840581697E0
1.397318392E1,6.930587769E-2,9.370513916E-2,9.894125061E0,9.894811503E0
1.398317792E1,5.523513794E-2,8.442443848E-2,9.731712799E0,9.732235735E0
1.399317192E1,6.002517700E-2,7.768844604E-2,9.814490662E0,9.814981684E0
1.400316592E1,5.807922363E-2,7.095245361E-2,9.740394745E0,9.740826312E0
1.401315992E1,7.050338745E-2,6.825805664E-2,9.725575562E0,9.726070630E0
1.402315392E1,4.595443726E-2,7.095245361E-2,9.793384552E0,9.793749386E0
1.403314792E1,5.583389282E-2,6.780899048E-2,9.770931244E0,9.771326054E0
1.404314192E1,6.795867920E-2,6.735992432E-2,9.838440857E0,9.838906150E0
1.405313592E1,4.101470947E-2,8.921447754E-2,9.874515839E0,9.875004024E0
1.406312992E1,6.810836792E-2,8.637039185E-2,9.821376343E0,9.821992255E0
1.407312392E1,5.074447632E-2,7.978408813E-2,9.938732300E0,9.939182070E0
1.408311792E1,6.735992432E-2,8.666976929E-2,9.909992065E0,9.910599969E0
1.409311192E1,5.643264771E-2,8.292755127E-2,9.849218445E0,9.849729214E0
1.410310592E1,4.146377563E-2,8.502319336E-2,9.978549500E0,9.978997861E0
1.411309992E1,3.472778320E-2,8.277786255E-2,9.830507355E0,9.830917203E0
1.412309392E1,6.062393188E-2,9.041198730E-2,9.903705139E0,9.904303361E0
1.413308792E1,4.550537109E-2,1.035845947E-1,9.845925293E0,9.846575312E0
1.414308092E1,5.164260864E-2,7.424560547E-2,9.752519531E0,9.752938869E0
1.415307592E1,2.245330811E-2,8.771759033E-2,9.811945953E0,9.812363727E0
1.416306892E1,3.906875610E-2,9.340576172E-2,9.735455017E0,9.735981481E0
1.417306292E1,4.161346436E-2,8.427474976E-2,9.736951904E0,9.737405522E0
1.418305692E1,4.221221924E-2,9.056167603E-2,9.826316071E0,9.826824045E0
1.419305092E1,5.074447632E-2,8.711883545E-2,9.768985291E0,9.769505530E0
1.420304492E1,4.849914551E-2,8.217910767E-2,9.878557434E0,9.879018299E0
1.421303892E1,3.248245239E-2,8.023315430E-2,9.871372375E0,9.871751873E0
1.422303292E1,4.999603271E-2,7.529342651E-2,9.845625916E0,9.846040746E0
1.423302692E1,4.969665527E-2,9.131011963E-2,9.962832184E0,9.963374550E0
1.424302092E1,4.909790039E-2,8.367599487E-2,9.853858795E0,9.854336377E0
1.425301492E1,4.056564331E-2,9.684860229E-2,9.921218719E0,9.921774342E0
1.426300892E1,2.769241333E-2,1.016386414E-1,9.919721832E0,9.920281171E0
1.427300292E1,6.765930176E-2,8.981323242E-2,9.866282959E0,9.866923716E0
1.428299692E1,7.409591675E-2,7.888595581E-2,9.849218445E0,9.849813053E0
1.429299092E1,8.262817383E-2,7.125183105E-2,9.856852570E0,9.857456407E0
1.430298492E1,9.235794067E-2,7.080276489E-2,9.695338440E0,9.696036844E0
1.431297892E1,7.738906860E-2,7.738906860E-2,9.869576111E0,9.870182913E0
1.432297292E1,6.047424316E-2,7.664062500E-2,9.646240540E0,9.646734549E0
1.433296692E1,7.244934082E-2,7.155120850E-2,9.820927277E0,9.821455139E0
1.434295992E1,1.556762695E-2,8.996292114E-2,9.762848053E0,9.763274952E0
1.435295392E1,2.724334717E-2,9.041198730E-2,9.822573853E0,9.823027721E0
1.436294792E1,1.347198486E-2,1.091230774E-1,9.865085449E0,9.865698164E0
1.437294192E1,3.412902832E-2,9.295669556E-2,9.885892181E0,9.886388115E0
1.438293592E1,4.685256958E-2,4.161346436E-2,9.847272491E0,9.847471877E0
1.439292992E1,5.508544922E-2,7.334747314E-3,9.982291718E0,9.982446401E0
1.440292392E1,6.391708374E-2,2.784210205E-2,9.811796265E0,9.812043952E0
1.441291792E1,6.301895142E-2,6.810836792E-2,9.968819733E0,9.969251577E0
1.442291192E1,3.577560425E-2,1.029858398E-1,9.856253815E0,9.856856763E0
1.443290592E1,5.658233643E-2,8.577163696E-2,9.882599030E0,9.883133203E0
1.444289992E1,4.266128540E-2,9.265731812E-2,9.870324554E0,9.870851644E0
1.445289392E1,6.421646118E-2,7.933502197E-2,9.777218170E0,9.777750915E0
1.446288792E1,5.643264771E-2,9.325607300E-2,9.794582062E0,9.795188569E0
1.447288192E1,5.703140259E-2,1.017883301E-1,9.762099609E0,9.762796845E0
1.448287592E1,8.487350464E-2,8.098159790E-2,9.744735718E0,9.745441793E0
1.449286992E1,8.158035278E-2,7.244934082E-2,9.784552917E0,9.785161218E0
1.450286392E1,7.484436035E-2,7.214996338E-2,9.834099884E0,9.834649349E0
1.451285792E1,6.002517700E-2,7.020401001E-2,9.763746185E0,9.764183079E0
1.452285192E1,4.849914551E-2,7.544311523E-2,9.961035919E0,9.961439676E0
1.453284492E1,6.930587769E-2,7.394622803E-2,9.793234863E0,9.793759260E0
1.454283892E1,9.550140381E-2,8.592132568E-2,9.965227203E0,9.966055198E0
1.455283292E1,7.095245361E-2,8.891510010E-2,9.834998016E0,9.835655856E0
1.456282692E1,7.768844604E-2,7.858657837E-2,9.907147980E0,9.907764250E0
1.457282092E1,4.625381470E-2,8.337661743E-2,9.907147980E0,9.907606783E0
1.458281492E1,5.478607178E-2,1.031355286E-1,9.822873230E0,9.823567424E0
1.459280892E1,6.197113037E-2,8.951385498E-2,9.884395294E0,9.884994865E0
1.460280292E1,5.822891235E-2,8.786727905E-2,9.813143463E0,9.813709589E0
1.461279692E1,5.882766724E-2,7.813751221E-2,9.742789764E0,9.743280688E0
1.462279092E1,5.224136353E-2,6.421646118E-2,9.790989532E0,9.791339486E0
1.463278492E1,4.415817261E-2,6.107299805E-2,9.735754395E0,9.736046091E0
1.464277892E1,4.999603271E-2,5.568420410E-2,9.754914551E0,9.755201598E0
1.465277292E1,3.472778320E-2,8.412506104E-2,9.820178833E0,9.820600560E0
1.466276692E1,3.876937866E-2,6.496490479E-2,9.768985291E0,9.769278229E0
1.467276092E1,4.251159668E-2,6.825805664E-2,9.890981598E0,9.891308476E0
1.468275492E1,3.697311401E-2,8.771759033E-2,9.874515839E0,9.874974655E0
1.469274892E1,5.942642212E-2,8.217910767E-2,9.899364166E0,9.899883626E0
1.470274292E1,3.442840576E-2,8.876541138E-2,9.877509613E0,9.877968454E0
1.471273692E1,3.981719971E-2,9.969268799E-2,9.974956970E0,9.975534602E0
1.472272992E1,2.888992310E-2,1.061293030E-1,9.815089417E0,9.815705696E0
1.473272392E1,5.583389282E-2,1.016386414E-1,1.001686981E1,1.001754105E1
1.474271792E1,4.715194702E-2,9.729766846E-2,9.742191010E0,9.742790966E0
1.475271192E1,7.394622803E-2,8.711883545E-2,9.929601288E0,9.930258782E0
1.476270592E1,5.373825073E-2,8.457412720E-2,9.758357391E0,9.758871838E0
1.477269992E1,8.547225952E-2,6.706054688E-2,9.781858521E0,9.782461793E0
1.478269392E1,6.077362061E-2,7.229965210E-2,9.716294861E0,9.716753907E0
1.479268792E1,9.265731812E-2,5.882766724E-2,9.788295135E0,9.788910447E0
1.480268267E1,7.649093628E-2,6.361770630E-2,9.682165833E0,9.682676969E0
1.481267667E1,1.005908203E-1,8.232879639E-2,9.873767395E0,9.874622986E0
1.482267067E1,7.978408813E-2,6.541397095E-2,9.724378052E0,9.724925346E0
1.483266467E1,1.035845947E-1,6.900650024E-2,9.964478760E0,9.965256074E0
1.484265867E1,7.155120850E-2,8.427474976E-2,9.839937744E0,9.840558755E0
1.485265267E1,6.481521606E-2,6.765930176E-2,9.911488953E0,9.911931802E0
1.486264667E1,5.014572144E-2,8.861572266E-2,9.934091949E0,9.934613742E0
1.487264067E1,8.008346558E-2,8.352630615E-2,9.901160431E0,9.901836591E0
1.488263467E1,7.020401001E-2,8.337661743E-2,9.899364166E0,9.899964200E0
1.489262867E1,4.326004028E-2,7.903564453E-2,9.898915100E0,9.899325140E0
1.490262267E1,4.640350342E-2,7.140151978E-2,9.838590546E0,9.838959060E0
1.491261567E1,2.948867798E-2,1.005908203E-1,9.843829651E0,9.844387756E0
1.492260967E1,6.406677246E-2,1.038839722E-1,9.802814941E0,9.803574716E0
1.493260367E1,6.691085815E-2,9.265731812E-2,9.647887115E0,9.648564050E0
1.494259767E1,6.242019653E-2,8.741821289E-2,9.843230896E0,9.843816978E0
1.495259167E1,5.912704468E-2,7.813751221E-2,9.606273651E0,9.606773389E0
1.496258567E1,5.733078003E-2,6.391708374E-2,9.838291168E0,9.838665830E0
1.497257967E1,3.667373657E-2,7.544311523E-2,9.702673187E0,9.703035793E0
1.498257367E1,5.418731689E-2,7.409591675E-2,9.840386810E0,9.840814958E0
1.499256767E1,3.113525391E-2,1.016386414E-1,9.864636383E0,9.865209110E0
1.500256167E1,5.388793945E-2,5.987548828E-2,9.851314087E0,9.851643428E0
1.501255567E1,5.358856201E-2,4.071533203E-2,9.839039612E0,9.839269788E0
1.502254967E1,5.209167480E-2,8.771759033E-2,9.924212494E0,9.924736850E0
1.503254367E1,5.313949585E-2,1.004411316E-1,9.707163849E0,9.707828914E0
1.504253767E1,1.481918335E-2,9.131011963E-2,9.901609497E0,9.902041596E0
1.505253167E1,2.544708252E-2,6.541397095E-2,9.794582062E0,9.794833552E0
1.506252567E1,6.840774536E-2,8.202941895E-2,9.763446808E0,9.764031033E0
1.507251967E1,5.343887329E-2,9.969268799E-2,9.810000000E0,9.810652086E0
1.508251367E1,5.568420410E-2,6.780899048E-2,9.636361084E0,9.636760541E0
1.509250767E1,3.278182983E-2,5.718109131E-2,9.700128479E0,9.700352408E0
1.510250167E1,1.930984497E-2,1.019380188E-1,9.663305054E0,9.663862002E0
1.511249467E1,5.763015747E-2,8.412506104E-2,9.603429565E0,9.603970933E0
1.512248867E1,3.757186890E-2,8.951385498E-2,9.651928711E0,9.652416911E0
1.513248267E1,5.598358154E-2,8.666976929E-2,9.662107544E0,9.662658433E0
1.514247667E1,7.035369873E-2,9.355545044E-2,9.624835052E0,9.625546844E0
1.515247067E1,6.286926270E-2,1.011895752E-1,9.730215912E0,9.730945153E0
1.516246467E1,4.281097412E-2,9.041198730E-2,9.595645752E0,9.596167178E0
1.517245867E1,3.397933960E-2,7.020401001E-2,9.698182526E0,9.698496146E0
1.518245267E1,3.158432007E-2,7.888595581E-2,9.660311279E0,9.660684995E0
1.519244667E1,7.978408813E-2,7.873626709E-2,9.691596222E0,9.692244437E0
1.520244067E1,4.251159668E-2,8.307723999E-2,9.633816376E0,9.634268370E0
1.521243467E1,5.224136353E-2,7.170089722E-2,9.804760895E0,9.805162231E0
1.522242867E1,6.870712280E-2,6.930587769E-2,9.556876373E0,9.557374639E0
1.523242267E1,6.092330933E-2,8.786727905E-2,9.759105835E0,9.759691543E0
1.524241667E1,6.271957397E-2,8.577163696E-2,9.562115479E0,9.562705838E0
1.525241067E1,8.681945801E-2,7.559280396E-2,9.604028320E0,9.604718209E0
1.526240467E1,7.379653931E-2,8.292755127E-2,9.571246490E0,9.571890215E0
1.527239867E1,9.220825195E-2,7.963439941E-2,9.520651703E0,9.521431239E0
1.528239267E1,5.613327026E-2,7.289840698E-2,9.502689056E0,9.503134453E0
1.529238667E1,4.745132446E-2,7.394622803E-2,9.530531158E0,9.530936147E0
1.530237967E1,6.361770630E-2,7.828720093E-2,9.482630768E0,9.483167318E0
1.531237367E1,6.406677246E-2,8.457412720E-2,9.586514740E0,9.587101866E0
1.532236767E1,6.077362061E-2,7.708969116E-2,9.472601624E0,9.473110248E0
1.533236167E1,6.466552734E-2,7.035369873E-2,9.529483337E0,9.529962432E0
1.534235567E1,4.385879517E-2,8.292755127E-2,9.558223572E0,9.558683927E0
1.535234967E1,6.197113037E-2,1.008901978E-1,9.553134155E0,9.553867879E0
1.536234367E1,3.712280273E-2,9.505233765E-2,9.497749329E0,9.498297498E0
1.537233767E1,2.365081787E-2,9.056167603E-2,9.637708282E0,9.638162777E0
1.538233167E1,7.454498291E-2,7.499404907E-2,9.498946838E0,9.499535362E0
1.539232567E1,4.610412598E-2,9.190887451E-2,9.607171783E0,9.607722025E0
1.540231967E1,3.487747192E-2,7.873626709E-2,9.557774506E0,9.558162446E0
1.541231367E1,4.146377563E-2,5.598358154E-2,9.399104462E0,9.399362643E0
1.542230767E1,2.814147949E-2,6.227050781E-2,9.563163300E0,9.563407439E0
1.543230167E1,6.795867920E-2,7.439529419E-2,9.390572205E0,9.391112787E0
1.544229567E1,4.954696655E-2,6.481521606E-2,9.376202087E0,9.376557017E0
1.545228967E1,4.565505981E-2,6.975494385E-2,9.468859406E0,9.469226398E0
1.546228367E1,7.229965210E-2,6.960525513E-2,9.375303955E0,9.375841103E0
1.547227767E1,6.002517700E-2,8.352630615E-2,9.434580688E0,9.435141357E0
1.548227167E1,4.251159668E-2,7.813751221E-2,9.481732635E0,9.482149887E0
1.549226567E1,5.658233643E-2,8.487350464E-2,9.409882050E0,9.410434913E0
1.550225967E1,4.775070190E-2,7.963439941E-2,9.395362244E0,9.395821063E0
1.551225267E1,9.071136475E-2,7.873626709E-2,9.492510223E0,9.493270158E0
1.552224667E1,8.562194824E-2,7.514373779E-2,9.435179443E0,9.435867148E0
1.553224067E1,6.107299805E-2,7.095245361E-2,9.416917419E0,9.417382749E0
1.554223467E1,8.427474976E-2,7.604187012E-2,9.513616333E0,9.514293475E0
1.555222867E1,8.292755127E-2,7.723937988E-2,9.481732635E0,9.482409856E0
1.556222267E1,4.535568237E-2,8.562194824E-2,9.422006836E0,9.422505032E0
1.557221667E1,3.772155762E-2,7.918533325E-2,9.526938629E0,9.527342383E0
1.558221067E1,5.164260864E-2,6.212081909E-2,9.378447418E0,9.378795335E0
1.559220467E1,4.400848389E-2,5.972579956E-2,9.360484772E0,9.360778765E0
1.560219867E1,4.909790039E-2,7.753875732E-2,9.409133606E0,9.409581185E0
1.561219267E1,1.901046753E-2,6.825805664E-2,9.292226715E0,9.292496860E0
1.562218667E1,2.395019531E-2,6.376739502E-2,9.294621735E0,9.294871332E0
1.563218067E1,3.128494263E-2,8.711883545E-2,9.334588623E0,9.335047574E0
1.564217467E1,6.197113037E-2,8.247848511E-2,9.345366211E0,9.345935627E0
1.565216867E1,3.682342529E-2,7.095245361E-2,9.237440643E0,9.237786524E0
1.566216267E1,2.694396973E-2,6.990463257E-2,9.339678040E0,9.339978507E0
1.567215667E1,4.326004028E-2,7.903564453E-2,9.384584656E0,9.385017167E0
1.568215067E1,7.065307617E-2,8.637039185E-2,9.265282745E0,9.265954676E0
1.569214467E1,7.933502197E-2,7.514373779E-2,9.354497223E0,9.355135430E0
1.570213767E1,6.137237549E-2,8.652008057E-2,9.398505707E0,9.399104309E0
1.571213167E1,4.879852295E-2,8.876541138E-2,9.284293213E0,9.284845775E0
1.572212567E1,7.364685059E-2,9.370513916E-2,9.364077301E0,9.364835728E0
1.573211967E1,8.023315430E-2,8.158035278E-2,9.425000610E0,9.425695158E0
1.574211367E1,7.454498291E-2,8.771759033E-2,9.328002319E0,9.328712591E0
1.575210767E1,5.328918457E-2,9.894424438E-2,9.335037689E0,9.335714132E0
1.576210167E1,6.331832886E-2,8.801696777E-2,9.434580688E0,9.435203706E0
1.577209567E1,6.047424316E-2,7.379653931E-2,9.309740295E0,9.310229183E0
1.578208967E1,4.730163574E-2,8.367599487E-2,9.278006287E0,9.278504177E0
1.579208367E1,4.400848389E-2,7.768844604E-2,9.296867065E0,9.297295815E0
1.580207692E1,3.667373657E-2,6.286926270E-2,9.245523834E0,9.245810320E0
1.581207092E1,5.254074097E-2,6.107299805E-2,9.204359436E0,9.204712004E0
1.582206492E1,7.304809570E-2,7.379653931E-2,9.236692200E0,9.237275829E0
1.583205892E1,5.089416504E-2,6.002517700E-2,9.266180878E0,9.266515057E0
1.584205292E1,3.233276367E-2,6.346801758E-2,9.246272278E0,9.246546633E0
1.585204692E1,5.224136353E-2,7.439529419E-2,9.285640411E0,9.286085379E0
1.586204092E1,6.316864014E-2,7.140151978E-2,9.306596832E0,9.307085100E0
1.587203492E1,7.185058594E-2,7.214996338E-2,9.365424500E0,9.365978015E0
1.588202792E1,6.047424316E-2,8.158035278E-2,9.333840179E0,9.334392588E0
1.589202192E1,4.790039063E-2,8.696914673E-2,9.329948273E0,9.330476561E0
1.590201592E1,4.460723877E-2,6.676116943E-2,9.342971191E0,9.343316196E0
1.591200992E1,5.867797852E-2,6.885681152E-2,9.329199829E0,9.329638461E0
1.592200392E1,5.403762817E-2,9.145980835E-2,9.327104187E0,9.327709123E0
1.593199792E1,5.837860107E-2,8.502319336E-2,9.268575897E0,9.269149700E0
1.594199192E1,2.424957275E-2,7.289840698E-2,9.332193604E0,9.332509827E0
1.595198592E1,2.679428101E-2,9.430389404E-2,9.329948273E0,9.330463329E0
1.596197992E1,4.026626587E-2,1.029858398E-1,9.334738312E0,9.335393232E0
1.597197392E1,5.912704468E-2,8.726852417E-2,9.297465820E0,9.298063373E0
1.598196792E1,4.400848389E-2,7.244934082E-2,9.348659363E0,9.349043670E0
1.599196192E1,5.179229736E-2,8.128097534E-2,9.344617767E0,9.345114780E0
1.600195592E1,1.901046753E-2,8.322692871E-2,9.332942047E0,9.333332490E0
1.601194992E1,2.754272461E-2,6.795867920E-2,9.323212280E0,9.323500641E0
1.602194392E1,3.802093506E-2,6.930587769E-2,9.342971191E0,9.343305602E0
1.603193792E1,4.999603271E-2,7.708969116E-2,9.330397339E0,9.330849743E0
1.604193192E1,4.834945679E-2,5.822891235E-2,9.338181152E0,9.338487860E0
1.605192592E1,3.667373657E-2,6.256988525E-2,9.307794342E0,9.308076894E0
1.606191992E1,2.829116821E-2,6.391708374E-2,9.360784149E0,9.361045116E0
1.607191392E1,5.194198608E-2,7.140151978E-2,9.360335083E0,9.360751520E0
1.608190692E1,5.972579956E-2,6.825805664E-2,9.359436951E0,9.359876408E0
1.609190092E1,5.373825073E-2,7.304809570E-2,9.334139557E0,9.334580070E0
1.610189492E1,4.969665527E-2,8.008346558E-2,9.314230957E0,9.314707802E0
1.611188892E1,6.092330933E-2,7.933502197E-2,9.379794617E0,9.380327966E0
1.612188292E1,6.915618896E-2,8.217910767E-2,9.345665588E0,9.346282752E0
1.613187692E1,5.837860107E-2,8.382568359E-2,9.353299713E0,9.353857511E0
1.614187092E1,5.957611084E-2,7.933502197E-2,9.269024963E0,9.269555930E0
1.615186492E1,6.331832886E-2,9.026229858E-2,9.326505432E0,9.327157127E0
1.616185892E1,7.574249268E-2,9.610015869E-2,9.298214264E0,9.299019339E0
1.617185292E1,7.229965210E-2,8.711883545E-2,9.340576172E0,9.341262236E0
1.618184692E1,5.852828979E-2,7.499404907E-2,9.308991852E0,9.309477910E0
1.619184092E1,7.978408813E-2,7.708969116E-2,9.336684265E0,9.337343380E0
1.620183492E1,7.155120850E-2,8.113128662E-2,9.357341309E0,9.357966565E0
1.621182892E1,6.316864014E-2,6.810836792E-2,9.407936096E0,9.408394689E0
1.622182292E1,5.343887329E-2,5.792953491E-2,9.398655396E0,9.398985838E0
1.623181692E1,5.448669434E-2,5.418731689E-2,9.375753021E0,9.376067927E0
1.624181092E1,5.897735596E-2,5.388793945E-2,9.359736328E0,9.360077263E0
1.625180492E1,6.810836792E-2,5.478607178E-2,9.431137848E0,9.431542894E0
1.626179892E1,5.328918457E-2,6.556365967E-2,9.370962982E0,9.371343849E0
1.627179292E1,4.430786133E-2,7.394622803E-2,9.403445435E0,9.403840560E0
1.628178592E1,3.562591553E-2,8.113128662E-2,9.310339050E0,9.310760695E0
1.629177992E1,5.418731689E-2,8.187973022E-2,9.309440918E0,9.309958687E0
1.630177392E1,4.400848389E-2,9.145980835E-2,9.297316132E0,9.297870127E0
1.631176792E1,3.921844482E-2,9.744735718E-2,9.324260101E0,9.324851769E0
1.632176192E1,2.784210205E-2,9.520202637E-2,9.321116638E0,9.321644382E0
1.633175592E1,3.921844482E-2,9.175918579E-2,9.314979401E0,9.315513892E0
1.634174992E1,3.772155762E-2,8.996292114E-2,9.300160217E0,9.300671820E0
1.635174392E1,4.670288086E-2,8.562194824E-2,9.354946289E0,9.355454684E0
1.636173792E1,3.772155762E-2,9.175918579E-2,9.351204071E0,9.351730334E0
1.637173192E1,3.113525391E-2,8.068222046E-2,9.370663605E0,9.371062662E0
1.638172592E1,4.101470947E-2,7.544311523E-2,9.376052399E0,9.376445619E0
1.639171992E1,4.894821167E-2,7.574249268E-2,9.351802826E0,9.352237644E0
1.640171392E1,4.745132446E-2,8.098159790E-2,9.358389130E0,9.358859800E0
1.641170792E1,6.107299805E-2,7.469467163E-2,9.340426483E0,9.340924799E0
1.642170192E1,6.286926270E-2,6.661148071E-2,9.341623993E0,9.342073028E0
1.643169592E1,6.346801758E-2,6.915618896E-2,9.322164459E0,9.322637018E0
1.644168992E1,7.319778442E-2,7.738906860E-2,9.345216522E0,9.345823604E0
1.645168392E1,7.244934082E-2,7.993377686E-2,9.303453369E0,9.304078832E0
1.646167792E1,6.047424316E-2,7.738906860E-2,9.309590607E0,9.310108671E0
1.647167092E1,5.284011841E-2,7.394622803E-2,9.286688232E0,9.287132951E0
1.648166492E1,6.616241455E-2,6.691085815E-2,9.327553253E0,9.328027885E0
1.649165892E1,7.155120850E-2,7.334747314E-2,9.301806793E0,9.302371152E0
1.650165292E1,7.244934082E-2,8.681945801E-2,9.375603333E0,9.376285212E0
1.651164692E1,5.149291992E-2,8.232879639E-2,9.337432709E0,9.337937628E0
1.652164092E1,6.481521606E-2,8.337661743E-2,9.371711426E0,9.372306425E0
1.653163492E1,6.960525513E-2,8.262817383E-2,9.369466095E0,9.370088965E0
1.654162892E1,6.691085815E-2,8.637039185E-2,9.389823761E0,9.390459369E0
1.655162292E1,5.882766724E-2,8.322692871E-2,9.381590881E0,9.382144471E0
1.656161692E1,4.670288086E-2,7.005432129E-2,9.360335083E0,9.360713735E0
1.657161092E1,4.760101318E-2,8.322692871E-2,9.400152283E0,9.400641229E0
1.658160492E1,6.661148071E-2,8.158035278E-2,9.357940063E0,9.358532720E0
1.659159892E1,6.017486572E-2,6.930587769E-2,9.343719635E0,9.344170425E0
1.660159292E1,5.553451538E-2,5.882766724E-2,9.321715393E0,9.322066436E0
1.661158692E1,5.718109131E-2,6.242019653E-2,9.343719635E0,9.344103091E0
