"Time (s)","Linear Acceleration x (m/s^2)","Linear Acceleration y (m/s^2)","Linear Acceleration z (m/s^2)","Absolute acceleration (m/s^2)"
3.034016668E-2,8.667093873E-2,7.748743339E-1,9.268813294E-1,1.211218842E0
4.033616668E-2,1.319026601E-1,3.145375174E-1,1.856137798E0,1.887214796E0
5.033216666E-2,3.285147017E-1,1.501681924E-2,2.219980207E0,2.244205769E0
6.032916668E-2,4.924893397E-1,-2.160750836E-2,1.868015247E0,1.931966252E0
7.032516666E-2,5.544341576E-1,1.501948703E-1,9.914369291E-1,1.145819758E0
8.032116666E-2,5.293630511E-1,2.540476695E-1,5.775645733E-2,5.900010734E-1
9.031716667E-2,5.285450256E-1,1.915011000E-1,-6.209438968E-1,8.376179549E-1
1.003131667E-1,6.663223833E-1,2.416694429E-1,-9.439049131E-1,1.180400831E0
1.103101667E-1,6.818560964E-1,4.260434814E-1,-1.098532777E0,1.361328412E0
1.203061667E-1,5.835240555E-1,6.574313995E-1,-1.193383970E0,1.482188135E0
1.303021667E-1,3.226967221E-1,7.947962362E-1,-1.078163416E0,1.377777407E0
1.402981667E-1,5.965797186E-2,8.496416572E-1,-7.249682021E-1,1.118494038E0
1.502941667E-1,-1.322073001E-1,8.056578778E-1,-2.915684849E-1,8.669345809E-1
1.602911667E-1,-2.584562874E-1,7.286657620E-1,2.289477289E-1,8.063315123E-1
1.702871667E-1,-2.814972407E-1,6.075351715E-1,5.710460973E-1,8.800189352E-1
1.802831667E-1,-2.444802725E-1,4.504815537E-1,6.433305466E-1,8.225438749E-1
1.902791667E-1,-2.457169586E-1,4.025217042E-1,5.189947683E-1,7.012532464E-1
2.002751667E-1,-1.941585499E-1,4.141853646E-1,2.560244304E-1,5.242094693E-1
2.102721667E-1,-1.159900475E-1,4.542446756E-1,4.517734230E-2,4.709914104E-1
2.202681667E-1,2.940740168E-2,5.667324236E-1,-1.915495223E-1,5.989504610E-1
2.302641667E-1,2.839717823E-1,7.632645410E-1,-4.257217383E-1,9.189405483E-1
2.402601667E-1,5.626781470E-1,9.572240663E-1,-5.919335210E-1,1.258280535E0
2.502571667E-1,7.234754080E-1,1.037182255E0,-6.763971359E-1,1.434111844E0
2.602531667E-1,7.226562130E-1,9.908684336E-1,-6.851650357E-1,1.404814358E0
2.702491667E-1,5.806659365E-1,9.073336489E-1,-5.894741821E-1,1.227968685E0
2.802451667E-1,3.605048186E-1,8.282191401E-1,-4.966706836E-1,1.030821244E0
2.902411667E-1,1.116905898E-1,7.159015095E-1,-4.488503999E-1,8.523241406E-1
3.002381667E-1,-1.186411750E-1,5.613150514E-1,-4.016545987E-1,7.003404400E-1
3.102341667E-1,-2.639836603E-1,4.332020082E-1,-3.163413835E-1,5.978488302E-1
3.202301667E-1,-2.570207959E-1,3.378628647E-1,-1.490116131E-1,4.499060632E-1
3.302261667E-1,-3.081622982E-1,3.692377813E-1,3.297525573E-1,5.831271647E-1
3.402221667E-1,-4.210696936E-1,5.009438288E-1,1.002179434E0,1.196916047E0
3.502191667E-1,-5.476005167E-1,6.370810425E-1,1.675966372E0,1.874727143E0
3.602151667E-1,-7.545913661E-1,7.246877550E-1,1.996020738E0,2.253592523E0
3.702111667E-1,-8.500126630E-1,8.319158229E-1,1.687127538E0,2.064220141E0
3.802071667E-1,-6.559599477E-1,9.694755180E-1,9.143764740E-1,1.485345269E0
3.902031667E-1,-2.641660935E-1,1.034014746E0,5.179522097E-2,1.068481616E0
4.002001667E-1,9.884601116E-2,1.121909506E0,-6.677520275E-1,1.309329693E0
4.101961667E-1,3.971224219E-1,1.224885698E0,-1.159571276E0,1.732817572E0
4.201921667E-1,5.671039045E-1,1.354415851E0,-1.312655475E0,1.969546529E0
4.301881667E-1,5.665799940E-1,1.472895496E0,-1.159712194E0,1.958409152E0
4.401841667E-1,3.895239651E-1,1.418114249E0,-7.570869577E-1,1.654073034E0
4.501811667E-1,3.751924396E-2,1.302468895E0,-2.753161490E-1,1.331777721E0
4.601771667E-1,-2.929004806E-1,1.317453993E0,1.944082260E-2,1.349760594E0
4.701731667E-1,-5.035236204E-1,1.314472205E0,-2.749887049E-2,1.407881175E0
4.801691667E-1,-5.413591987E-1,1.266746939E0,-3.886492217E-1,1.431351042E0
4.901651667E-1,-4.214754903E-1,1.256697621E0,-8.464031768E-1,1.572682052E0
5.001621667E-1,-1.616573864E-1,1.320189905E0,-1.226445297E0,1.809199426E0
5.101581667E-1,1.024747932E-1,1.373422664E0,-1.445826981E0,1.996799077E0
5.201541667E-1,3.131265843E-1,1.387680222E0,-1.468191996E0,2.044331772E0
5.301501667E-1,4.181232816E-1,1.354034320E0,-1.278352200E0,1.908512605E0
5.401461667E-1,4.628819633E-1,1.330833445E0,-9.683456898E-1,1.709699022E0
5.501431667E-1,5.040808600E-1,1.352639759E0,-7.147969705E-1,1.610796865E0
5.601391667E-1,5.313481808E-1,1.438921858E0,-4.618563616E-1,1.601917071E0
5.701351667E-1,4.816959643E-1,1.490591364E0,-1.920997453E-1,1.578225563E0
5.801311667E-1,3.610146958E-1,1.500167641E0,-3.261343002E-2,1.543339949E0
5.901271667E-1,2.191945732E-1,1.577502331E0,-5.679751396E-2,1.593670550E0
6.001241667E-1,1.079045177E-2,1.717489790E0,-8.690833569E-2,1.719721103E0
6.101201667E-1,-1.323558193E-1,1.890769687E0,-4.536620736E-2,1.895939388E0
6.201161667E-1,-1.477339965E-1,2.003556922E0,3.000849545E-2,2.009220292E0
6.301121667E-1,-2.248681265E-1,2.065456131E0,1.084822226E-1,2.080491071E0
6.401081667E-1,-3.676080161E-1,2.121441467E0,1.598348093E-1,2.158980481E0
6.501051667E-1,-4.771041459E-1,2.148110033E0,2.337903929E-1,2.212840489E0
6.601011667E-1,-5.422947532E-1,2.155805115E0,2.956755692E-1,2.242543943E0
6.700971667E-1,-5.064864045E-1,2.123656100E0,3.001299781E-1,2.203751736E0
6.800931667E-1,-3.321253574E-1,2.146660947E0,3.416697675E-1,2.198908525E0
6.900901667E-1,-1.349660164E-1,2.280568471E0,5.258143759E-1,2.344288620E0
7.000861667E-1,-2.628908157E-2,2.387055624E0,6.641407871E-1,2.477863727E0
7.100821667E-1,-6.632730603E-2,2.449495993E0,7.172773594E-1,2.553216940E0
7.200781667E-1,-1.564451784E-1,2.490224189E0,6.627643526E-1,2.581656095E0
7.300741667E-1,-2.633305264E-1,2.528127303E0,4.756932127E-1,2.585934001E0
7.400711667E-1,-3.124006525E-1,2.630636594E0,2.317426980E-1,2.659238187E0
7.500671667E-1,-3.294140035E-1,2.704727541E0,1.713818908E-2,2.724767582E0
7.600631667E-1,-3.825090605E-1,2.707392117E0,-1.014369124E-1,2.736160577E0
7.700591667E-1,-4.730534872E-1,2.611922288E0,-9.602356017E-2,2.656151006E0
7.800551667E-1,-5.908628958E-1,2.491246575E0,2.122129977E-2,2.560445040E0
7.900521667E-1,-7.171303019E-1,2.373511133E0,3.102000529E-1,2.498810726E0
8.000481667E-1,-7.464111114E-1,2.281297619E0,6.605283773E-1,2.489527286E0
8.100441667E-1,-5.580442286E-1,2.219288189E0,9.013167179E-1,2.459476622E0
8.200401667E-1,-2.877069837E-1,2.255568700E0,1.043560179E0,2.501875960E0
8.300361667E-1,-3.192024261E-2,2.333831343E0,1.135771354E0,2.595720364E0
8.400321667E-1,1.319661024E-1,2.312172964E0,1.197581686E0,2.607251573E0
8.500291667E-1,1.608209422E-1,2.099875766E0,1.248519706E0,2.448293909E0
8.600251667E-1,2.561168164E-2,1.822912311E0,1.382637876E0,2.288089322E0
8.700211667E-1,-1.217358139E-1,1.582655189E0,1.599129866E0,2.253182945E0
8.800171667E-1,-1.609583518E-1,1.369838028E0,1.880973846E0,2.332472170E0
8.900131667E-1,-9.877204388E-2,1.206939497E0,2.264972193E0,2.568376511E0
9.000101667E-1,2.241150051E-2,1.147370111E0,2.717771802E0,2.950126101E0
9.100061667E-1,2.341116974E-1,1.271894973E0,3.033537235E0,3.297707274E0
9.200021667E-1,4.958579206E-1,1.660539663E0,3.241944280E0,3.676067160E0
9.299981667E-1,6.612388140E-1,2.192556473E0,3.264994004E0,3.988073031E0
9.399951667E-1,6.481150308E-1,2.651192773E0,2.984984295E0,4.044626986E0
9.499911667E-1,4.375489014E-1,2.935844294E0,2.372787833E0,3.800099059E0
9.599871667E-1,2.077375388E-1,2.965592589E0,1.795150754E0,3.472817375E0
9.699831667E-1,-3.756748348E-2,2.760749714E0,1.345806264E0,3.071537856E0
9.799791667E-1,-1.292088479E-1,2.341845975E0,1.105152410E0,2.592739738E0
9.899761667E-1,-1.521153152E-2,1.846905044E0,9.033538878E-1,2.056049095E0
9.999721667E-1,2.228113684E-1,1.306677867E0,7.320790011E-1,1.514262730E0
1.009968167E0,4.352418825E-1,7.898780700E-1,8.052703536E-1,1.209050538E0
1.019964167E0,5.727748266E-1,4.082547896E-1,1.178042046E0,1.372051762E0
1.029960167E0,5.704657611E-1,1.081862804E-1,1.714354513E0,1.810012942E0
1.039957167E0,4.552779517E-1,-1.378747869E-1,2.253129827E0,2.302798620E0
1.049953167E0,3.573677874E-1,-2.399605210E-1,2.727129686E0,2.760892810E0
1.059949167E0,2.729246378E-1,-2.707694272E-1,3.013966019E0,3.038386925E0
1.069945167E0,2.431052998E-1,-2.412077321E-1,2.708801588E0,2.730363969E0
1.079941167E0,2.252718768E-1,-1.268664533E-1,2.017859504E0,2.034354810E0
1.089937167E0,2.719010827E-1,2.991910614E-3,1.289132711E0,1.317498500E0
1.099934167E0,4.656745934E-1,-1.632779240E-2,7.860540640E-1,9.137835714E-1
1.109930167E0,6.587519932E-1,-1.556720851E-1,5.436963308E-1,8.682129271E-1
1.119926167E0,8.210712844E-1,-3.056613710E-1,2.762008327E-1,9.186260544E-1
1.129922167E0,9.510724300E-1,-4.249189522E-1,-1.932539856E-1,1.059453626E0
1.139918167E0,9.724273387E-1,-5.582429973E-1,-6.960250694E-1,1.319735227E0
1.149915167E0,8.776001188E-1,-7.019123384E-1,-9.876777542E-1,1.496118393E0
1.159911167E0,1.045580392E0,-6.863806719E-1,-1.190364468E0,1.726651195E0
1.169907167E0,1.170305595E0,-8.736149490E-1,-1.772969341E0,2.297006432E0
1.179903167E0,1.143646969E0,-1.148884028E0,-2.375527838E0,2.875933832E0
1.189899167E0,1.097864440E0,-1.405747241E0,-2.775587316E0,3.299290315E0
1.199896167E0,1.002887532E0,-1.641440464E0,-3.084257737E0,3.634935486E0
1.209892167E0,9.109146300E-1,-1.850395978E0,-3.300335160E0,3.891778887E0
1.219888167E0,8.609700528E-1,-2.034841864E0,-3.448031150E0,4.095213017E0
1.229884167E0,7.690310651E-1,-2.173099132E0,-3.396173363E0,4.104602555E0
1.239880167E0,6.168648791E-1,-2.361491451E0,-3.000343176E0,3.867715518E0
1.249877167E0,4.164015689E-1,-2.601989915E0,-2.449838932E0,3.597978958E0
1.259873167E0,3.051413342E-1,-2.861723819E0,-1.902719641E0,3.450060360E0
1.269869167E0,2.410301229E-1,-3.060378293E0,-1.480365899E0,3.408151114E0
1.279865167E0,1.917872116E-1,-3.177130818E0,-1.251691820E0,3.420186396E0
1.289861167E0,2.288749310E-1,-3.234866810E0,-1.267037253E0,3.481684996E0
1.299858167E0,3.113855758E-1,-3.216545144E0,-1.364699203E0,3.507923539E0
1.309854167E0,3.225347543E-1,-3.171342367E0,-1.428600499E0,3.493184859E0
1.319850167E0,2.855259722E-1,-3.119695665E0,-1.475348403E0,3.462755988E0
1.329846167E0,1.954618943E-1,-3.106808986E0,-1.524004254E0,3.465985631E0
1.339842167E0,1.243615061E-2,-3.109034729E0,-1.473472617E0,3.440548380E0
1.349839167E0,-2.612600273E-1,-3.231200606E0,-9.802085209E-1,3.386697935E0
1.359835167E0,-5.521250921E-1,-3.415539926E0,-9.467811584E-2,3.461173074E0
1.369831167E0,-6.750259638E-1,-3.534962582E0,9.582276678E-1,3.724220827E0
1.379827167E0,-8.817963731E-1,-3.534359734E0,2.005551115E0,4.158304804E0
1.389823167E0,-1.214750281E0,-3.444537438E0,2.730101241E0,4.560033903E0
1.399820167E0,-1.625001749E0,-3.381124384E0,3.167816203E0,4.909958481E0
1.409816167E0,-1.948399844E0,-3.407683023E0,3.263309421E0,5.104679609E0
1.419812167E0,-2.058828605E0,-3.577519494E0,3.001014436E0,5.103284100E0
1.429808167E0,-1.922247003E0,-3.772571791E0,2.529459298E0,4.932088381E0
1.439804167E0,-1.617191038E0,-3.759966071E0,2.087019786E0,4.594377357E0
1.449801167E0,-1.209256530E0,-3.480000216E0,1.779103070E0,4.091199164E0
1.459797167E0,-7.968635193E-1,-2.897769565E0,1.624074088E0,3.416090831E0
1.469793167E0,-3.267488426E-1,-2.146093767E0,1.582193406E0,2.686227696E0
1.479789167E0,7.154477656E-2,-1.347988591E0,1.554808556E0,2.059034129E0
1.489785167E0,2.518024483E-1,-5.204155686E-1,1.255535780E0,1.382247059E0
1.499781167E0,2.722785205E-1,2.763103767E-1,7.122586942E-1,8.110459077E-1
1.509778167E0,5.698111653E-4,1.029713387E0,2.976811641E-1,1.071878753E0
1.519774167E0,-3.675246933E-1,1.840590051E0,-2.280560285E-1,1.890728878E0
1.529770167E0,-8.506181422E-1,2.506848992E0,-1.000715876E0,2.830066317E0
1.539766167E0,-1.355914931E0,2.722029452E0,-1.355120879E0,3.329309573E0
1.549762167E0,-1.961461939E0,2.643491406E0,-1.640404192E0,3.677812619E0
1.559759167E0,-2.376597294E0,2.290096070E0,-1.781188772E0,3.750385067E0
1.569755167E0,-2.335597787E0,1.830339298E0,-1.277865127E0,3.230804582E0
1.579751250E0,-2.337456032E0,1.440729671E0,-6.177396226E-1,2.814427993E0
1.589747250E0,-2.511827019E0,1.061285282E0,-1.435087985E-1,2.730603633E0
1.599743250E0,-2.530588396E0,6.054519182E-1,4.636017555E-1,2.642986235E0
1.609740250E0,-2.290833258E0,1.102617496E-1,1.085113417E0,2.537231916E0
1.619736250E0,-1.901267193E0,-1.673038964E-1,1.286634196E0,2.301789540E0
1.629732250E0,-1.151840672E0,-3.590733105E-1,1.439934742E0,1.878585276E0
1.639728250E0,5.993571460E-2,-4.787282831E-1,1.157444644E0,1.253974148E0
1.649724250E0,1.414696990E0,-3.367855517E-1,3.249566710E-1,1.490096949E0
1.659721250E0,2.312296633E0,2.850861154E-2,-5.609766072E-1,2.379542648E0
1.669717250E0,2.595148673E0,5.448226507E-1,-1.399093110E0,2.998181096E0
1.679713250E0,2.611954740E0,9.919561619E-1,-1.890358627E0,3.373387071E0
1.689709250E0,2.590555100E0,1.361427978E0,-2.088708462E0,3.595436678E0
1.699705250E0,2.486591606E0,1.627026347E0,-2.314753048E0,3.766753804E0
1.709701250E0,2.304397044E0,1.708283641E0,-2.577176086E0,3.856204781E0
1.719698250E0,2.074393893E0,1.535983445E0,-2.803934618E0,3.811089674E0
1.729694250E0,1.979929200E0,1.196177039E0,-2.992894993E0,3.782641879E0
1.739690250E0,2.024318923E0,8.076743632E-1,-3.001804395E0,3.709586851E0
1.749686250E0,2.035395888E0,5.040180755E-1,-2.781896462E0,3.483650178E0
1.759682250E0,1.990689247E0,3.873238041E-1,-2.441535301E0,3.173949910E0
1.769679250E0,1.914182523E0,3.387710103E-1,-2.033247621E0,2.812997763E0
1.779675250E0,1.743106441E0,4.018212444E-1,-1.690903670E0,2.461510837E0
1.789671250E0,1.394738688E0,5.398830691E-1,-1.384555762E0,2.038078604E0
1.799667250E0,9.746308619E-1,7.838009857E-1,-1.235714303E0,1.758192009E0
1.809663250E0,5.391916358E-1,1.108888342E0,-1.303681169E0,1.794420677E0
1.819660250E0,1.516279498E-1,1.374479987E0,-1.427500053E0,1.987446268E0
1.829656250E0,-1.432211155E-1,1.563205011E0,-1.588559854E0,2.233303518E0
1.839652250E0,-3.020367551E-1,1.553943460E0,-1.554036723E0,2.218331945E0
1.849648250E0,-3.812592182E-1,1.510212573E0,-1.127330899E0,1.922752080E0
1.859644250E0,-4.463822901E-1,1.668880717E0,-7.394447386E-2,1.729129197E0
1.869641250E0,-5.372363269E-1,2.081833598E0,1.710728070E0,2.747588857E0
1.879637250E0,-6.253304780E-1,2.667133160E0,3.608065934E0,4.530207201E0
1.889633250E0,-9.989374450E-1,3.236877667E0,5.057466148E0,6.087135360E0
1.899629250E0,-1.853472929E0,3.585460598E0,5.699399210E0,6.983841418E0
1.909625250E0,-2.821806340E0,3.715836550E0,5.549006485E0,7.249931397E0
1.919621250E0,-3.739744353E0,3.649590520E0,4.864964699E0,7.139543425E0
1.929618250E0,-4.402064610E0,3.522507720E0,4.304953467E0,7.093578633E0
1.939614250E0,-4.392692400E0,3.583994701E0,4.143862676E0,7.022276156E0
1.949610250E0,-3.839435579E0,3.729423725E0,4.162594816E0,6.780638797E0
1.959606250E0,-3.091463554E0,3.777653022E0,4.148794802E0,6.406270956E0
1.969602250E0,-2.333718784E0,3.740849184E0,3.986036385E0,5.943793574E0
1.979599250E0,-1.728848298E0,3.541351542E0,3.842647455E0,5.504182650E0
1.989595250E0,-1.601847359E0,3.356378091E0,3.988560628E0,5.453421379E0
1.999591250E0,-1.939391331E0,3.407056786E0,4.453880296E0,5.933491752E0
2.009587250E0,-2.190739743E0,3.753753112E0,4.901961787E0,6.551277159E0
2.019583250E0,-2.162154168E0,4.217071863E0,4.761384197E0,6.717840815E0
2.029579250E0,-2.082270385E0,4.532607500E0,4.137356479E0,6.480594057E0
2.039576250E0,-1.914524293E0,4.607342225E0,3.161948522E0,5.906853994E0
2.049572250E0,-1.674998658E0,4.417306547E0,2.084815385E0,5.163784738E0
2.059568250E0,-1.491142318E0,4.018764421E0,1.036279226E0,4.409971373E0
2.069564250E0,-1.380022124E0,3.485204531E0,1.431375003E-1,3.751213141E0
2.079560250E0,-1.172048942E0,2.888937930E0,-5.027447712E-1,3.157912822E0
2.089557250E0,-8.689889243E-1,2.240725543E0,-6.433130050E-1,2.487939777E0
2.099553250E0,-6.997862908E-1,1.562532435E0,-2.795863706E-1,1.734755603E0
2.109549250E0,-6.072511795E-1,9.443029623E-1,3.603820270E-1,1.179125644E0
2.119545250E0,-5.286912060E-1,4.592969622E-1,1.154343281E0,1.350176470E0
2.129541250E0,-4.246063820E-1,9.162097223E-2,1.928410553E0,1.976727660E0
2.139537250E0,-3.269254285E-1,-2.188418216E-1,2.636396102E0,2.665587437E0
2.149534250E0,-8.932352811E-2,-4.439125724E-1,3.084803283E0,3.117859579E0
2.159530250E0,3.712397218E-1,-5.367197620E-1,2.947089075E0,3.018479924E0
2.169526250E0,8.012845990E-1,-5.059562448E-1,2.101003987E0,2.304835457E0
2.179522250E0,1.180944896E0,-4.499482146E-1,8.160415095E-1,1.504329747E0
2.189518250E0,1.442522720E0,-4.493235858E-1,-7.386296368E-1,1.681766102E0
2.199515250E0,1.737022998E0,-5.077034659E-1,-2.232862793E0,2.874141256E0
2.209511250E0,1.961758101E0,-5.699258438E-1,-3.156208311E0,3.759649081E0
2.219507250E0,2.070213718E0,-6.610996503E-1,-3.415668565E0,4.048410717E0
2.229503250E0,2.117210129E0,-8.234089281E-1,-3.126476973E0,3.864639603E0
2.239499250E0,2.059801289E0,-1.098340257E0,-2.442393672E0,3.378523275E0
2.249495250E0,1.948534915E0,-1.549775273E0,-1.690372158E0,3.009310509E0
2.259492250E0,1.930583378E0,-2.157185935E0,-1.106966216E0,3.099351148E0
2.269488250E0,2.070502863E0,-2.872145897E0,-7.016769880E-1,3.609508935E0
2.279484250E0,2.245973420E0,-3.546392719E0,-5.685575223E-1,4.236101459E0
2.289480250E0,2.510467542E0,-4.005594152E0,-6.982598752E-1,4.778577052E0
2.299476250E0,2.796831420E0,-4.279374238E0,-1.062939021E0,5.221604085E0
2.309473250E0,3.048239766E0,-4.484367093E0,-1.648029546E0,5.667214067E0
2.319469250E0,3.280904862E0,-4.598762313E0,-2.245855891E0,6.079212137E0
2.329465250E0,3.342068200E0,-4.668645895E0,-2.750283490E0,6.366296696E0
2.339461250E0,3.246471486E0,-4.744915515E0,-3.048495582E0,6.507466916E0
2.349457250E0,2.964058864E0,-4.863095929E0,-2.907750177E0,6.394556909E0
2.359453250E0,2.540312608E0,-5.021627394E0,-2.124033830E0,6.015101790E0
2.369450250E0,2.230321885E0,-5.205394272E0,-1.078282700E0,5.764820797E0
2.379446250E0,2.218920107E0,-5.373098264E0,5.919428766E-2,5.813544131E0
2.389442250E0,2.374735248E0,-5.401880599E0,1.121695937E0,6.006486766E0
2.399438250E0,2.357818668E0,-5.240391612E0,1.826636256E0,6.029727451E0
2.409434250E0,2.173138455E0,-4.957792171E0,1.819482772E0,5.710757526E0
2.419431250E0,1.803986481E0,-4.717369866E0,1.409390641E0,5.243503377E0
2.429427250E0,1.122157575E0,-4.580041867E0,1.006164311E0,4.821658195E0
2.439423250E0,3.106426871E-1,-4.548348497E0,8.858186728E-1,4.644205814E0
2.449419250E0,-2.694566542E-1,-4.508914874E0,9.369186598E-1,4.613104899E0
2.459415250E0,-6.037168300E-1,-4.520320453E0,1.104016880E0,4.692187580E0
2.469411250E0,-8.629081124E-1,-4.546421254E0,1.391863028E0,4.832374087E0
2.479408250E0,-1.013506952E0,-4.502457209E0,1.697878228E0,4.917530655E0
2.489404250E0,-1.094522172E0,-4.141395151E0,2.156335019E0,4.795718225E0
2.499400250E0,-9.391938114E-1,-3.333739718E0,2.749804603E0,4.422367113E0
2.509396250E0,-7.991234681E-1,-2.233859304E0,3.307493321E0,4.070410026E0
2.519392250E0,-9.024572173E-1,-1.134336886E0,3.407134554E0,3.702663240E0
2.529388250E0,-1.084401518E0,-6.227518559E-2,2.949729093E0,3.143359122E0
2.539385250E0,-1.489828156E0,9.467976037E-1,2.270359817E0,2.875855931E0
2.549381250E0,-2.162489213E0,1.849390696E0,1.455323444E0,3.196024385E0
2.559377250E0,-2.892091334E0,2.522117534E0,6.353163528E-1,3.889588154E0
2.569373250E0,-3.530251188E0,2.833696945E0,-1.258700877E-1,4.528615142E0
2.579369250E0,-4.043494342E0,2.691143290E0,-8.051925856E-1,4.923457505E0
2.589365875E0,-4.152391132E0,2.299688281E0,-1.291543518E0,4.919248212E0
2.599361875E0,-3.802261029E0,1.885326075E0,-1.569099736E0,4.524789202E0
2.609357875E0,-3.264617443E0,1.437282737E0,-1.328531250E0,3.806376755E0
2.619353875E0,-2.809537127E0,1.007387914E0,-6.287739033E-1,3.050194404E0
2.629349875E0,-2.369161682E0,5.665978280E-1,4.336166489E-1,2.474264249E0
2.639345875E0,-2.026757796E0,1.481632187E-1,1.586820307E0,2.578313052E0
2.649342875E0,-1.763435164E0,-3.710595544E-2,2.149804264E0,2.780780250E0
2.659338875E0,-1.416530969E0,6.427760113E-2,1.729737368E0,2.236667824E0
2.669334875E0,-9.998221287E-1,4.695957363E-1,5.549247390E-1,1.236165810E0
2.679330875E0,-6.042571127E-1,9.246001844E-1,-9.210709512E-1,1.438187699E0
2.689326875E0,-3.569590670E-1,1.252798552E0,-2.322409977E0,2.662801549E0
2.699323875E0,-2.180365321E-1,1.462011928E0,-3.430740348E0,3.735638920E0
2.709319875E0,-1.325037539E-2,1.529885676E0,-4.227146323E0,4.495496834E0
2.719315875E0,3.635386464E-1,1.480156861E0,-4.737438680E0,4.976580144E0
2.729311875E0,8.221807936E-1,1.322232922E0,-4.919751356E0,5.160255280E0
2.739307875E0,1.172464679E0,1.107596838E0,-4.692922658E0,4.962355011E0
2.749303875E0,1.263155286E0,8.709717152E-1,-4.103890525E0,4.381332040E0
2.759300875E0,1.180995474E0,6.296448460E-1,-3.357706286E0,3.614608477E0
2.769296875E0,1.110222823E0,4.050631234E-1,-2.556918992E0,2.816825444E0
2.779292875E0,1.147422224E0,2.569759186E-1,-1.787760458E0,2.139790139E0
2.789288875E0,1.114323475E0,2.881129997E-1,-1.102812939E0,1.594027065E0
2.799284875E0,1.035791276E0,4.889478639E-1,-6.892773825E-1,1.336800991E0
2.809280875E0,1.021253051E0,8.707179460E-1,-5.219119442E-1,1.439965143E0
2.819277875E0,9.382389611E-1,1.332926310E0,-3.479005605E-1,1.666739241E0
2.829273875E0,6.115737337E-1,1.691138874E0,-1.641529781E-1,1.805801573E0
2.839269875E0,2.007065544E-1,1.912251480E0,-5.327281237E-2,1.923493394E0
2.849265875E0,-5.390840471E-2,1.975505782E0,1.147165239E-2,1.976274477E0
2.859261875E0,-7.406287998E-2,1.963861929E0,2.460584360E-1,1.980601863E0
2.869257875E0,-1.266922063E-1,1.927183953E0,9.340821755E-1,2.145366732E0
2.879254875E0,-3.625115830E-1,1.814774010E0,1.835312939E0,2.606375441E0
2.889250875E0,-6.225258610E-1,1.645660838E0,2.787318000E0,3.296191693E0
2.899246875E0,-8.842913800E-1,1.432104151E0,3.463427453E0,3.850743210E0
2.909242875E0,-1.089605833E0,1.177867433E0,3.702299076E0,4.035050311E0
2.919238875E0,-1.219867764E0,8.153404284E-1,3.670708909E0,3.953095151E0
2.929235875E0,-1.268209912E0,3.812380951E-1,3.464593388E0,3.709057321E0
2.939231875E0,-1.274374047E0,7.111589243E-3,3.257470976E0,3.497884639E0
2.949227875E0,-1.339101262E0,-3.103266451E-1,3.106470725E0,3.397006797E0
2.959223875E0,-1.375137945E0,-6.349039049E-1,3.032933802E0,3.390102474E0
2.969219875E0,-1.250852160E0,-9.096993593E-1,3.018009369E0,3.391248236E0
2.979215875E0,-9.743352851E-1,-9.834092136E-1,3.191647115E0,3.478941540E0
2.989212875E0,-6.956257045E-1,-6.799009337E-1,3.459839602E0,3.593974189E0
2.999208875E0,-5.617990181E-1,-1.839150321E-1,3.716189722E0,3.762912293E0
3.009204875E0,-4.422553253E-1,2.715520587E-1,3.588522785E0,3.625855219E0
3.019200875E0,-2.129626107E-1,5.459616883E-1,2.789105494E0,2.850006438E0
3.029196875E0,-2.510648221E-2,6.661982761E-1,1.723981953E0,1.848395048E0
3.039192875E0,4.315435186E-2,7.005981036E-1,6.669720089E-1,9.682725141E-1
3.049189875E0,1.082281610E-1,6.599584930E-1,-2.350452054E-1,7.088757267E-1
3.059185875E0,2.185597117E-1,5.000872483E-1,-7.690679026E-1,9.430381977E-1
3.069181875E0,2.961483166E-1,1.597408336E-1,-9.763832724E-1,1.032736779E0
3.079177875E0,2.990274855E-1,-3.142037876E-1,-8.526678836E-1,9.566524850E-1
3.089173875E0,2.469820037E-1,-7.520326245E-1,-5.714606649E-1,9.762788894E-1
3.099169875E0,2.923701382E-1,-1.020730602E0,-2.746045429E-1,1.096712777E0
3.109166875E0,3.572236535E-1,-1.125658887E0,6.909420848E-2,1.183000710E0
3.119162875E0,3.939058685E-1,-1.164116536E0,2.988447601E-1,1.264767700E0
3.129158875E0,4.572206891E-1,-1.175279821E0,3.368756354E-1,1.305304030E0
3.139154875E0,5.832115218E-1,-1.108817810E0,9.056869268E-2,1.256111182E0
3.149150875E0,7.944962740E-1,-8.829769260E-1,-5.091498113E-1,1.292325853E0
3.159146875E0,9.776540186E-1,-5.515386895E-1,-1.379464007E0,1.778460922E0
3.169143875E0,1.042072793E0,-2.332169272E-1,-2.282543076E0,2.519981892E0
3.179139875E0,1.034740970E0,2.048601012E-2,-3.049339920E0,3.220183612E0
3.189135875E0,1.006160072E0,2.559809417E-1,-3.521111990E0,3.670982699E0
3.199131875E0,9.288594425E-1,4.206420428E-1,-3.756045513E0,3.891991455E0
3.209127875E0,7.007345630E-1,4.952413683E-1,-3.754837478E0,3.851635682E0
3.219123875E0,4.442467408E-1,4.676442646E-1,-3.656729971E0,3.713181978E0
3.229120875E0,2.849932909E-1,3.576528391E-1,-3.490130517E0,3.519964170E0
3.239116875E0,2.430860040E-1,1.840180162E-1,-3.236108758E0,3.250438945E0
3.249112875E0,2.696273929E-1,-7.051356526E-2,-2.850786018E0,2.864376374E0
3.259108875E0,3.299599873E-1,-3.567294907E-1,-2.464511935E0,2.511961107E0
3.269104875E0,4.730039321E-1,-5.917640980E-1,-2.101034977E0,2.233442509E0
3.279100875E0,6.802829030E-1,-7.114047083E-1,-1.814599763E0,2.064377336E0
3.289097875E0,8.758003458E-1,-7.147222723E-1,-1.664696449E0,2.012229718E0
3.299093875E0,9.598185490E-1,-6.624866829E-1,-1.637695761E0,2.010519251E0
3.309089875E0,8.976763876E-1,-6.151143689E-1,-1.665785201E0,1.989730866E0
3.319085875E0,8.309985410E-1,-5.470561774E-1,-1.508008611E0,1.806631951E0
3.329081875E0,6.595928228E-1,-5.806956476E-1,-1.045331300E0,1.365645508E0
3.339077875E0,4.033178392E-1,-7.488443571E-1,-4.893692654E-1,9.812825426E-1
3.349074875E0,2.061070427E-1,-1.014269283E0,2.361889207E-1,1.061606093E0
3.359070875E0,2.047329471E-1,-1.322688859E0,1.037483168E0,1.693455851E0
3.369066875E0,2.545579487E-1,-1.539780773E0,1.828882756E0,2.404274675E0
3.379062875E0,2.937483269E-1,-1.709628501E0,2.632544541E0,3.152682738E0
3.389058875E0,4.283158556E-1,-1.724321238E0,3.311377042E0,3.757919121E0
3.399054875E0,7.362164909E-1,-1.426900421E0,3.916968489E0,4.233284975E0
3.409051875E0,8.403635877E-1,-8.682222082E-1,4.234305069E0,4.403335120E0
3.419047875E0,4.315923429E-1,-2.897513895E-1,4.132407396E0,4.164975234E0
3.429043875E0,-4.152829966E-1,9.324891016E-2,3.861305335E0,3.884692294E0
3.439039875E0,-1.286807858E0,2.567521529E-1,3.428664002E0,3.671175966E0
3.449035875E0,-1.893275219E0,3.180983987E-1,2.893101733E0,3.472134110E0
3.459031875E0,-2.201788350E0,2.271821987E-1,2.310760569E0,3.199859074E0
3.469028875E0,-2.142669491E0,1.325900734E-1,1.793101305E0,2.797110110E0
3.479024875E0,-1.708271947E0,1.356615427E-1,1.484220384E0,2.267048135E0
3.489020875E0,-9.448240954E-1,2.875603648E-1,1.528476790E0,1.819787029E0
3.499016875E0,-1.581756619E-1,5.699686747E-1,2.062045158E0,2.145207231E0
3.509012875E0,3.948423001E-1,9.426672768E-1,2.819958912E0,2.999448333E0
3.519008875E0,6.866271320E-1,1.270455681E0,3.249083730E0,3.555567401E0
3.529004875E0,7.301760247E-1,1.488188889E0,3.035854486E0,3.458941407E0
3.539001875E0,5.008771706E-1,1.605045201E0,2.275907655E0,2.829629604E0
3.548997875E0,1.381767225E-1,1.617881009E0,1.129984365E0,1.978255907E0
3.558993875E0,-1.857853371E-1,1.534168177E0,1.631490111E-2,1.545462508E0
3.568989875E0,-4.666563410E-1,1.331329143E0,-7.579470831E-1,1.601464707E0
3.578985875E0,-6.033037242E-1,1.077527312E0,-1.160066535E0,1.694342014E0
3.588982125E0,-6.513511723E-1,7.913903792E-1,-1.112579543E0,1.512742649E0
3.598979125E0,-6.254684722E-1,5.072505625E-1,-7.927421093E-1,1.130023891E0
3.608975125E0,-4.989566526E-1,2.931911238E-1,-4.251376015E-1,7.180952280E-1
3.618971125E0,-3.674969190E-1,1.222428771E-1,6.734764516E-2,3.931068707E-1
3.628967125E0,-2.645163417E-1,-3.357650299E-2,4.855650669E-1,5.539582212E-1
3.638963125E0,-7.393190235E-2,-1.969212497E-1,7.090398020E-1,7.395818721E-1
3.648959125E0,2.462417462E-1,-2.028294956E-1,4.700617594E-1,5.680958189E-1
3.658956125E0,5.705110770E-1,1.278128251E-2,-2.439300495E-1,6.206030287E-1
3.668952125E0,7.308238962E-1,2.260704602E-1,-1.360581594E0,1.560895158E0
3.678948125E0,8.561943394E-1,3.789636744E-1,-2.567014795E0,2.732443443E0
3.688944125E0,9.713035038E-1,4.069859438E-1,-3.596332326E0,3.747355635E0
3.698940125E0,1.074749520E0,4.491297871E-1,-4.304726595E0,4.459537550E0
3.708936125E0,1.143313970E0,4.888076404E-1,-4.613749019E0,4.778365804E0
3.718932125E0,1.136412502E0,4.292259747E-1,-4.665325554E0,4.820884860E0
3.728929125E0,1.059324857E0,2.764061979E-1,-4.451354299E0,4.584007486E0
3.738925125E0,8.656823239E-1,1.621232999E-1,-4.077769843E0,4.171797783E0
3.748921125E0,6.789441830E-1,7.822942313E-2,-3.661763839E0,3.724996571E0
3.758917125E0,5.775078553E-1,-9.468088414E-2,-3.105576686E0,3.160235172E0
3.768913125E0,5.141006488E-1,-2.887553895E-1,-2.605067890E0,2.670965717E0
3.778909125E0,4.756025809E-1,-4.542598418E-1,-2.176787410E0,2.273973009E0
3.788906125E0,3.967882535E-1,-5.112204200E-1,-1.951647972E0,2.056141300E0
3.798902125E0,2.921333259E-1,-4.752372396E-1,-1.984161415E0,2.061089235E0
3.808898125E0,1.832599247E-1,-3.440148299E-1,-2.111165863E0,2.146846921E0
3.818894125E0,5.752841592E-2,-7.910233933E-2,-2.120469368E0,2.122723966E0
3.828890125E0,-1.061740342E-1,2.691615891E-1,-1.938136811E0,1.959616081E0
3.838886125E0,-5.501133576E-1,5.025891988E-1,-1.573973975E0,1.741440404E0
3.848883125E0,-1.049305068E0,6.945765679E-1,-1.089951988E0,1.664774180E0
3.858879125E0,-1.409051503E0,7.905495496E-1,-3.890854239E-1,1.661861064E0
3.868875125E0,-1.724664031E0,7.563554710E-1,6.271407759E-1,1.984904323E0
3.878871125E0,-1.963970979E0,6.049432104E-1,1.918811179E0,2.811578673E0
3.888867125E0,-2.028613995E0,3.756914994E-1,3.050703490E0,3.682826446E0
3.898863125E0,-1.790530576E0,2.224708412E-1,3.700239687E0,4.116705814E0
3.908859125E0,-1.444603159E0,1.600929639E-1,3.908141533E0,4.169661651E0
3.918856125E0,-1.368175957E0,1.581796087E-2,3.848371294E0,4.084374772E0
3.928852125E0,-1.555369889E0,-2.355854881E-1,3.587198975E0,3.916972364E0
3.938848125E0,-1.625242069E0,-4.864343286E-1,3.243889648E0,3.660717169E0
3.948844125E0,-1.608079614E0,-7.078409035E-1,3.197800725E0,3.648683087E0
3.958840125E0,-1.612651552E0,-9.205131269E-1,3.434799485E0,3.904591777E0
3.968836125E0,-1.583509029E0,-1.057768621E0,3.787568437E0,4.239345465E0
3.978833125E0,-1.346500914E0,-9.223620895E-1,4.233902780E0,4.537592896E0
3.988829125E0,-9.659854612E-1,-4.225597834E-1,4.665895658E0,4.783541258E0
3.998825125E0,-5.069307929E-1,1.869001088E-1,4.857594284E0,4.887548742E0
4.008821125E0,1.693470597E-2,8.351862437E-1,4.535894512E0,4.612175394E0
4.018817125E0,3.742311573E-1,1.291117549E0,3.709626807E0,3.945676689E0
4.028813125E0,5.313426259E-1,1.566178028E0,2.510965140E0,3.006689963E0
4.038810125E0,5.840912354E-1,1.680492117E0,1.336182917E0,2.224994633E0
4.048806125E0,4.730657664E-1,1.604977812E0,3.418434298E-1,1.707806174E0
4.058802125E0,3.419703144E-1,1.351399418E0,-3.092586511E-1,1.427888300E0
4.068798125E0,2.793840569E-1,9.134228662E-1,-4.137706143E-1,1.040962490E0
4.078794125E0,1.768352965E-1,3.200922992E-1,2.475652635E-2,3.665278812E-1
4.088790125E0,2.391327015E-1,-2.440211930E-1,6.266677362E-1,7.137529286E-1
4.098786125E0,5.388703313E-1,-6.662294856E-1,1.237204759E0,1.504964643E0
4.108783125E0,8.875839472E-1,-8.660228511E-1,1.535492864E0,1.973712030E0
4.118779125E0,1.245120719E0,-9.120848771E-1,1.563498103E0,2.196986742E0
4.128775125E0,1.612568521E0,-7.771922433E-1,1.385939798E0,2.263897998E0
4.138771125E0,1.915221281E0,-3.467413500E-1,7.756126910E-1,2.095203371E0
4.148767125E0,1.879306220E0,1.040370961E-1,-2.441580909E-1,1.897953835E0
4.158763125E0,1.637708625E0,3.616448063E-1,-1.535849544E0,2.274139470E0
4.168760125E0,1.413098069E0,5.717738564E-1,-2.799829872E0,3.187917629E0
4.178756125E0,1.248097829E0,6.864853370E-1,-3.797581210E0,4.055938036E0
4.188752125E0,1.142412037E0,6.807438098E-1,-4.473674875E0,4.667149482E0
4.198748125E0,9.927291638E-1,5.700404493E-1,-4.777689158E0,4.912918786E0
4.208744125E0,8.057890016E-1,4.131938595E-1,-4.756419327E0,4.841853973E0
4.218740125E0,6.867610332E-1,2.376775488E-1,-4.440006607E0,4.499087686E0
4.228736125E0,5.669056839E-1,7.542199217E-2,-4.020637869E0,4.061108150E0
4.238733125E0,4.537161604E-1,-9.774731934E-2,-3.556232121E0,3.586390914E0
4.248729125E0,3.690174875E-1,-3.536778288E-1,-3.180353803E0,3.221166283E0
4.258725125E0,3.751009306E-1,-6.257250188E-1,-2.979931716E0,3.067935061E0
4.268721125E0,4.493740180E-1,-8.240783612E-1,-2.949237342E0,3.095002916E0
4.278717125E0,5.731657130E-1,-9.157958856E-1,-2.900100850E0,3.094799828E0
4.288713125E0,6.127566254E-1,-9.437374634E-1,-2.778771710E0,2.997946513E0
4.298709125E0,5.405932134E-1,-9.873903635E-1,-2.648531413E0,2.877828938E0
4.308706125E0,3.989917767E-1,-1.099786054E0,-2.494468975E0,2.755194961E0
4.318702125E0,2.855844444E-1,-1.244224926E0,-2.101186420E0,2.458584656E0
4.328698125E0,2.199041328E-1,-1.423395308E0,-1.302105344E0,1.941620549E0
4.338694125E0,1.118452486E-1,-1.693032056E0,-3.464370024E-1,1.731729049E0
4.348690125E0,1.317918554E-1,-1.899621202E0,7.381180054E-1,2.042240924E0
4.358686125E0,2.698419857E-1,-2.008175930E0,1.961296463E0,2.819976787E0
4.368683125E0,4.583094406E-1,-2.005610025E0,3.120364294E0,3.737538287E0
4.378679125E0,6.976447481E-1,-1.882745260E0,3.966803139E0,4.446005516E0
4.388675125E0,8.143116108E-1,-1.575880167E0,4.478950818E0,4.817416541E0
4.398671125E0,7.812988159E-1,-1.127831566E0,4.842968643E0,5.033565055E0
4.408667125E0,4.581498116E-1,-7.173675527E-1,4.917447553E0,4.990571900E0
4.418663125E0,-1.442423317E-1,-4.274200621E-1,4.794077734E0,4.815254415E0
4.428659125E0,-7.170323610E-1,-4.306800310E-1,4.452605018E0,4.530486965E0
4.438656125E0,-1.066734449E0,-6.622410268E-1,3.868269369E0,4.066939079E0
4.448652125E0,-1.187244101E0,-8.266261393E-1,3.308910102E0,3.611335680E0
4.458648125E0,-8.714956257E-1,-7.351088820E-1,2.869232814E0,3.087456337E0
4.468644125E0,-1.042470843E-1,-4.016972834E-1,2.750265949E0,2.781400897E0
4.478640125E0,6.247273377E-1,4.303112179E-2,2.804558516E0,2.873618693E0
4.488636125E0,1.062302552E0,5.470431308E-1,2.596782970E0,2.858500427E0
4.498632125E0,1.137338408E0,1.091468902E0,2.000576304E0,2.546988136E0
4.508629125E0,8.589469162E-1,1.482608306E0,1.282014311E0,2.139971469E0
4.518625125E0,3.312640625E-1,1.634658571E0,4.465033275E-1,1.726618008E0
4.528621125E0,-3.170743319E-1,1.660121734E0,-2.930870068E-1,1.715354277E0
4.538617125E0,-9.984360462E-1,1.559766702E0,-7.797209448E-1,2.009405747E0
4.548613125E0,-1.523398483E0,1.292616190E0,-1.094733256E0,2.278166029E0
4.558609125E0,-1.715022557E0,8.396161674E-1,-1.104061319E0,2.205721895E0
4.568605125E0,-1.685435938E0,3.403235923E-1,-8.679682928E-1,1.926105762E0
4.578602125E0,-1.535625303E0,-2.160743527E-2,-3.369721144E-1,1.572311088E0
4.588598625E0,-1.327532254E0,-2.764423958E-1,4.300428307E-1,1.422567791E0
4.598594625E0,-1.025936963E0,-3.939729653E-1,1.012781020E0,1.494485445E0
4.608590625E0,-6.177481011E-1,-4.037865666E-1,1.241122393E0,1.443967140E0
4.618586625E0,-1.124001494E-1,-2.313284958E-1,1.067232631E0,1.097785114E0
4.628582625E0,2.813791269E-1,2.190401336E-1,5.430572301E-1,6.496644891E-1
4.638579625E0,3.595613703E-1,7.464342079E-1,-3.075968724E-1,8.837783894E-1
4.648575625E0,2.483695480E-1,1.166299887E0,-1.418754957E0,1.853323633E0
4.658571625E0,7.589013487E-2,1.410694863E0,-2.577539783E0,2.939307851E0
4.668567625E0,-5.951559216E-2,1.498862396E0,-3.573412410E0,3.875487949E0
4.678563625E0,-6.886353582E-2,1.500661292E0,-4.268477367E0,4.525110554E0
4.688559625E0,-9.000619054E-3,1.433325342E0,-4.606363986E0,4.824219285E0
4.698555625E0,1.671531844E-1,1.208648273E0,-4.638878598E0,4.796661910E0
4.708551625E0,4.184773305E-1,8.087567559E-1,-4.412145794E0,4.505134990E0
4.718548625E0,6.332747975E-1,3.645827398E-1,-3.970643005E0,4.037321317E0
4.728544625E0,8.183502826E-1,-1.920788415E-2,-3.397839235E0,3.495050442E0
4.738540625E0,9.835063505E-1,-3.754189826E-1,-2.595217670E0,2.800603312E0
4.748536625E0,9.323753732E-1,-6.731093927E-1,-1.650516366E0,2.011617351E0
4.758532625E0,5.816792589E-1,-9.054033369E-1,-1.127160745E0,1.558395748E0
4.768528625E0,1.638886839E-1,-1.026598137E0,-1.243611553E0,1.620904973E0
4.778525625E0,-7.179766864E-2,-9.355542120E-1,-1.774745141E0,2.007520088E0
4.788521625E0,-1.984580076E-1,-5.941077351E-1,-2.308880104E0,2.392337125E0
4.798517625E0,-3.761507982E-1,-9.803058039E-2,-2.570693863E0,2.599916605E0
4.808513625E0,-5.448263052E-1,2.388859124E-1,-2.574336094E0,2.642178742E0
4.818509625E0,-6.781498387E-1,4.183004157E-1,-2.244207560E0,2.381455441E0
4.828505625E0,-8.841270733E-1,5.156872907E-1,-1.626269717E0,1.921553345E0
4.838501625E0,-1.037499832E0,5.620216508E-1,-7.498890352E-1,1.398072889E0
4.848498625E0,-1.176852722E0,5.753465782E-1,7.100408453E-1,1.490021482E0
4.858494625E0,-1.407516609E0,4.789331549E-1,2.244095294E0,2.691921927E0
4.868490625E0,-1.575389878E0,3.164035101E-1,3.368350557E0,3.731990076E0
4.878486625E0,-1.651702766E0,1.663906344E-1,3.871773605E0,4.212652220E0
4.888482625E0,-1.657455842E0,-8.420648351E-3,3.824856132E0,4.168543535E0
4.898478625E0,-1.600793691E0,-2.876476344E-1,3.471293128E0,3.833426350E0
4.908474625E0,-1.603600062E0,-6.074551012E-1,3.012452760E0,3.466324637E0
4.918471625E0,-1.564828637E0,-9.372256386E-1,2.583330281E0,3.162384528E0
4.928467625E0,-1.465204069E0,-1.358794538E0,2.455860980E0,3.166133085E0
4.938463625E0,-1.317421833E0,-1.668245709E0,2.637083150E0,3.387159809E0
4.948459625E0,-1.250903908E0,-1.717398573E0,3.008768429E0,3.683328102E0
4.958455625E0,-9.856411690E-1,-1.370504318E0,3.374298345E0,3.773017350E0
4.968451625E0,-5.826282620E-1,-7.794609629E-1,3.984709067E0,4.101819284E0
4.978447625E0,-1.962240788E-1,-1.640376417E-1,4.422912857E0,4.430301387E0
4.988444625E0,1.943898073E-1,4.162834552E-1,4.351524786E0,4.375711059E0
4.998440625E0,5.872601339E-1,9.431851939E-1,3.734241246E0,3.896027523E0
5.008436625E0,8.270626339E-1,1.328526426E0,2.719399082E0,3.137538276E0
5.018432625E0,7.547347690E-1,1.541674540E0,1.643798500E0,2.376648579E0
5.028428625E0,5.376908018E-1,1.553925042E0,8.245667499E-1,1.839484917E0
5.038424625E0,3.933851740E-1,1.327451854E0,3.821991581E-1,1.436299592E0
5.048420625E0,2.312652728E-1,8.701222609E-1,3.090136528E-1,9.518853991E-1
5.058417625E0,6.189277768E-2,2.799842736E-1,5.120570469E-1,5.868767576E-1
5.068413625E0,8.547576785E-2,-2.126757317E-1,7.319152790E-1,7.669661332E-1
5.078409625E0,2.608869749E-1,-5.666302800E-1,9.968953049E-1,1.175981351E0
5.088405625E0,4.392940030E-1,-7.274125575E-1,1.130510615E0,1.414271013E0
5.098401625E0,5.550074771E-1,-6.996027613E-1,1.067043182E0,1.391423183E0
5.108397625E0,6.712068549E-1,-5.330541790E-1,7.450867170E-1,1.135702257E0
5.118393625E0,8.770756236E-1,-1.886634828E-1,1.453723061E-1,9.088391863E-1
5.128390625E0,8.946298420E-1,2.800252041E-1,-7.978426355E-1,1.230987222E0
5.138386625E0,7.556633069E-1,6.715696746E-1,-2.031264830E0,2.268935802E0
5.148382625E0,6.020397024E-1,9.891424086E-1,-3.137332329E0,3.344205235E0
5.158378625E0,3.893391931E-1,1.139182035E0,-3.990755673E0,4.168387165E0
5.168374625E0,1.450781912E-1,1.103130589E0,-4.630942172E0,4.762727178E0
5.178370625E0,-7.998333201E-2,9.773396576E-1,-4.947482945E0,5.043726562E0
5.188366625E0,-1.819722216E-1,8.042530842E-1,-4.917545786E0,4.986200304E0
5.198363625E0,-1.172955845E-1,5.376170538E-1,-4.543428065E0,4.576628555E0
5.208359625E0,5.738691330E-2,1.838836033E-1,-4.011434936E0,4.016057355E0
5.218355625E0,3.777017722E-1,-2.218050626E-1,-3.309027046E0,3.337890967E0
5.228351625E0,8.490635137E-1,-6.078248645E-1,-2.505966355E0,2.714816253E0
5.238347625E0,1.311745064E0,-9.277984652E-1,-1.835030519E0,2.439020727E0
5.248343625E0,1.671887940E0,-1.141463107E0,-1.573521400E0,2.564004076E0
5.258339625E0,1.912568545E0,-1.221666221E0,-1.564192168E0,2.756280815E0
5.268335625E0,1.985821440E0,-1.214352597E0,-1.929387038E0,3.023354654E0
5.278332625E0,1.840189371E0,-1.198204634E0,-2.392848460E0,3.247724591E0
5.288328625E0,1.461602184E0,-1.266378125E0,-2.645992552E0,3.277387845E0
5.298324625E0,1.037389758E0,-1.532563409E0,-2.523197515E0,3.129129881E0
5.308320625E0,7.140879956E-1,-1.852245306E0,-2.071353341E0,2.869013594E0
5.318316625E0,5.730475992E-1,-2.176548405E0,-1.368370669E0,2.634043431E0
5.328312625E0,7.276424262E-1,-2.488694265E0,-3.252958095E-1,2.613212584E0
5.338308625E0,1.045593840E0,-2.716296257E0,9.865346235E-1,3.073236470E0
5.348305625E0,1.172898835E0,-2.840833180E0,2.359822801E0,3.874892061E0
5.358301625E0,1.228150637E0,-2.864906751E0,3.759882456E0,4.883928825E0
5.368297625E0,1.295672530E0,-2.609902368E0,4.942220451E0,5.737238069E0
5.378293625E0,1.106145559E0,-2.096667984E0,5.484091866E0,5.974515732E0
5.388289625E0,4.809112680E-1,-1.589467780E0,5.204266929E0,5.462790289E0
5.398285625E0,-4.420141277E-1,-1.321890421E0,4.715201134E0,4.916898668E0
5.408281625E0,-1.231273343E0,-1.160486219E0,4.285283434E0,4.607213520E0
5.418278625E0,-1.506798238E0,-1.085059257E0,3.918650149E0,4.336313354E0
5.428274625E0,-1.336610056E0,-1.077803740E0,3.639862508E0,4.024523129E0
5.438270625E0,-8.429196981E-1,-8.789457824E-1,3.363223134E0,3.576916151E0
5.448266625E0,-1.132377630E-1,-4.375396190E-1,3.248535846E0,3.279824515E0
5.458262625E0,6.669670388E-1,2.597378509E-1,3.477859551E0,3.550748630E0
5.468258625E0,1.257707728E0,1.275504021E0,3.675187292E0,4.088488824E0
5.478254625E0,1.333923553E0,2.414233336E0,3.240063815E0,4.255101429E0
5.488250625E0,6.591363014E-1,3.270956994E0,2.221057264E0,4.008330786E0
5.498247625E0,-5.717729062E-1,3.611464335E0,8.423504716E-1,3.752219772E0
5.508243625E0,-1.615684357E0,3.657184007E0,-5.192865443E-1,4.031760077E0
5.518239625E0,-2.356981639E0,3.565478323E0,-1.562311118E0,4.550693810E0
5.528235625E0,-2.864023529E0,3.259290922E0,-2.190287461E0,4.860346413E0
5.538231625E0,-3.065408361E0,2.710500789E0,-2.173968467E0,4.633538803E0
5.548227625E0,-3.119194851E0,2.036424998E0,-1.739974673E0,4.111437115E0
5.558223625E0,-2.865353186E0,1.287357789E0,-9.652437419E-1,3.286218867E0
5.568220625E0,-2.423403963E0,4.525739799E-1,1.461920857E-2,2.465344539E0
5.578216625E0,-1.833420780E0,-2.970844558E-1,1.039137345E0,2.128261580E0
5.588212500E0,-1.127136771E0,-8.186397198E-1,2.011963756E0,2.447162938E0
5.598208500E0,-4.063233081E-1,-1.095192701E0,2.715870287E0,2.956433172E0
5.608204500E0,2.312836915E-1,-9.854501112E-1,2.495934872E0,2.693379838E0
5.618200500E0,7.895401740E-1,-4.979575462E-1,1.417700120E0,1.697412452E0
5.628196500E0,9.912775925E-1,1.047522471E-1,2.389581621E-2,9.970834011E-1
5.638193500E0,9.745055853E-1,5.481434307E-1,-1.441986530E0,1.824677371E0
5.648189500E0,8.046164887E-1,8.661185262E-1,-2.614653230E0,2.869491333E0
5.658185500E0,6.217638226E-1,1.009132358E0,-3.471574379E0,3.668346635E0
5.668181500E0,4.809348030E-1,9.595128127E-1,-4.060041670E0,4.199512053E0
5.678177500E0,3.824422561E-1,8.381315593E-1,-4.330569534E0,4.427477734E0
5.688173500E0,2.867392695E-1,6.613490340E-1,-4.220260057E0,4.281377921E0
5.698169500E0,2.162657028E-1,3.974408028E-1,-3.832461020E0,3.859078584E0
5.708166500E0,2.461114995E-1,9.663042806E-2,-3.198981278E0,3.209889332E0
5.718162500E0,2.913182241E-1,-2.555160515E-1,-2.597021536E0,2.625771433E0
5.728158500E0,2.728278664E-1,-4.851820378E-1,-2.275741010E0,2.342826028E0
5.738154500E0,3.548612322E-1,-5.465457521E-1,-2.229367912E0,2.322653663E0
5.748150500E0,4.352869061E-1,-5.092990614E-1,-2.230168980E0,2.328629190E0
5.758146500E0,3.373309873E-1,-3.060953440E-1,-2.182458624E0,2.229486982E0
5.768142500E0,5.894461155E-2,-7.402195861E-2,-2.014987351E0,2.017207908E0
5.778138500E0,-1.870943825E-1,1.217469967E-1,-1.676328315E0,1.691124850E0
5.788135500E0,-4.208770278E-1,3.226642701E-1,-1.220007513E0,1.330288703E0
5.798131500E0,-6.692209943E-1,5.380026411E-1,-7.987442762E-1,1.172730148E0
5.808127500E0,-9.056866345E-1,6.281763178E-1,-3.590810215E-1,1.159229462E0
5.818123500E0,-1.172921639E0,5.558428615E-1,2.649958134E-2,1.298232909E0
5.828119500E0,-1.326212245E0,4.080752800E-1,2.964152420E-1,1.418882077E0
5.838115500E0,-1.209898261E0,2.367976524E-1,7.118891501E-1,1.423626739E0
5.848111500E0,-9.875458995E-1,-1.242144121E-2,1.206520325E0,1.559196104E0
5.858107500E0,-7.869093655E-1,-2.578559245E-1,1.760031792E0,1.945103580E0
5.868104500E0,-7.642901427E-1,-4.487918546E-1,2.327658437E0,2.490692143E0
5.878100500E0,-9.680955751E-1,-7.376747864E-1,2.666576505E0,2.931211932E0
5.888096500E0,-1.304923702E0,-1.192722650E0,2.625784575E0,3.165463287E0
5.898092500E0,-1.537894754E0,-1.778061243E0,2.271176088E0,3.268770852E0
5.908088500E0,-1.594266152E0,-2.318520701E0,1.983984244E0,3.442879069E0
5.918084500E0,-1.441121142E0,-2.733120451E0,2.037313190E0,3.701002915E0
5.928080500E0,-1.026368634E0,-3.074035050E0,2.492442915E0,4.088446618E0
5.938076500E0,-3.945989098E-1,-3.190613912E0,3.168666973E0,4.513997765E0
5.948073500E0,4.583663048E-1,-2.916837335E0,3.606551505E0,4.661035665E0
5.958069500E0,1.332742561E0,-2.159613553E0,3.746168981E0,4.524811097E0
5.968065500E0,1.915239992E0,-1.123521511E0,3.486200604E0,4.133284343E0
5.978061500E0,2.038866064E0,-1.981875739E-1,2.761350515E0,3.438213171E0
5.988057500E0,1.591384644E0,3.311368490E-1,1.516091802E0,2.222766531E0
5.998053500E0,9.515858155E-1,6.775752767E-1,7.935899556E-2,1.170863643E0
6.008049500E0,3.052809365E-1,9.393289552E-1,-1.089922752E0,1.470872850E0
6.018045500E0,-4.207460502E-1,1.057882349E0,-1.844772565E0,2.167793375E0
6.028042500E0,-1.142362921E0,8.616426288E-1,-2.023149480E0,2.478014302E0
6.038038500E0,-1.747028900E0,3.731227079E-1,-1.856178144E0,2.576184744E0
6.048034500E0,-2.049650084E0,-1.431684905E-1,-1.445763831E0,2.512328748E0
6.058030500E0,-2.025941964E0,-5.866692728E-1,-6.793195742E-1,2.215873814E0
6.068026500E0,-1.871975274E0,-9.184975185E-1,8.139441133E-2,2.086756854E0
6.078022500E0,-1.452368261E0,-1.122504022E0,8.117098922E-1,2.007053012E0
6.088018500E0,-7.284078267E-1,-1.164651630E0,1.532239473E0,2.057850622E0
6.098014500E0,1.420873404E-1,-1.008160770E0,1.871971473E0,2.130928001E0
6.108011500E0,9.192862348E-1,-5.606072094E-1,1.574631786E0,1.907572512E0
6.118007500E0,1.412733787E0,2.841691989E-2,6.130098099E-1,1.540261439E0
6.128003500E0,1.342066239E0,4.523376427E-1,-9.800857294E-1,1.722300546E0
6.137999500E0,9.929382017E-1,7.743441376E-1,-2.716390690E0,2.994046341E0
6.147995500E0,7.002550913E-1,9.776964840E-1,-4.111133471E0,4.283417564E0
6.157991500E0,4.361582874E-1,1.099024528E0,-4.999338977E0,5.137263783E0
6.167987500E0,1.009274738E-1,1.073339902E0,-5.394885575E0,5.501548442E0
6.177983500E0,-1.723510668E-1,8.933412619E-1,-5.388395165E0,5.464665219E0
6.187980500E0,-2.334074003E-1,6.248621891E-1,-4.975845450E0,5.020355536E0
6.197976500E0,-5.863280877E-2,3.583303852E-1,-4.420033103E0,4.434921770E0
6.207972500E0,3.933119376E-1,1.107862448E-1,-3.683944666E0,3.706536952E0
6.217968500E0,8.526361625E-1,-1.788930047E-1,-2.624130982E0,2.764969176E0
6.227964500E0,1.241663407E0,-4.414366786E-1,-1.650882402E0,2.112346340E0
6.237960500E0,1.618768617E0,-6.316198893E-1,-7.767125523E-1,1.903322860E0
6.247956500E0,1.889829747E0,-5.962997831E-1,1.244872212E-3,1.981673902E0
6.257952500E0,1.912255573E0,-3.871512381E-1,3.301297027E-1,1.978785759E0
6.267949500E0,1.562881222E0,-1.401281942E-1,1.163742095E-1,1.573460066E0
6.277945500E0,1.097245220E0,1.198010799E-1,-4.588549858E-1,1.195343996E0
6.287941500E0,8.306450768E-1,3.739781190E-1,-1.064489703E0,1.401060029E0
6.297937500E0,7.281696989E-1,5.364574047E-1,-1.263082196E0,1.553510313E0
6.307933500E0,6.681152858E-1,5.882793767E-1,-1.024999362E0,1.357598745E0
6.317929500E0,7.262253535E-1,4.793701612E-1,-3.821360081E-1,9.503825252E-1
6.327925500E0,9.850030915E-1,3.079787687E-1,6.401192558E-1,1.214427715E0
6.337921500E0,1.107701065E0,1.953116208E-2,1.983160957E0,2.271631681E0
6.347918500E0,1.033766093E0,-3.303246342E-1,3.249341007E0,3.425785119E0
6.357914500E0,9.192749789E-1,-6.213647501E-1,4.257996233E0,4.400192332E0
6.367910500E0,9.549004559E-1,-8.688049563E-1,4.908914126E0,5.075834397E0
6.377906500E0,1.026520077E0,-1.013917938E0,5.214805366E0,5.410727128E0
6.387902500E0,9.015612777E-1,-1.140161517E0,5.159968423E0,5.360788669E0
6.397898500E0,4.982972328E-1,-1.298473200E0,4.976348310E0,5.167047057E0
6.407894500E0,7.493791580E-3,-1.347507512E0,4.776488725E0,4.962930303E0
6.417890500E0,-3.929918025E-1,-1.137278474E0,4.652875078E0,4.805943339E0
6.427887500E0,-5.948444112E-1,-8.737536742E-1,4.436685973E0,4.560862614E0
6.437883500E0,-6.135943852E-1,-6.528467439E-1,4.023647431E0,4.122189417E0
6.447879500E0,-3.248609228E-1,-2.922204494E-1,3.387471537E0,3.415536682E0
6.457875500E0,2.435732232E-1,4.482140766E-1,2.636332952E0,2.685232803E0
6.467871500E0,7.841467023E-1,1.342221336E0,1.855405142E0,2.420531431E0
6.477867500E0,9.122761542E-1,2.036254698E0,1.094472470E0,2.485246661E0
6.487863500E0,5.565258528E-1,2.360702515E0,2.108114201E-1,2.434559271E0
6.497859500E0,-5.146222204E-2,2.380647368E0,-5.824329650E-1,2.451399275E0
6.507856500E0,-6.435330065E-1,2.281473328E0,-1.068809626E0,2.600309461E0
6.517852500E0,-1.163167899E0,2.101594263E0,-1.345703938E0,2.753284783E0
6.527848500E0,-1.603085946E0,1.721489578E0,-1.509176300E0,2.794820928E0
6.537844500E0,-1.951423147E0,1.207514279E0,-1.518145929E0,2.751528683E0
6.547840500E0,-2.011472444E0,7.636965041E-1,-1.292610050E0,2.509998901E0
6.557836500E0,-1.836563366E0,3.755227342E-1,-6.978400451E-1,2.000240748E0
6.567832500E0,-1.662359317E0,2.581874616E-2,1.766911626E-2,1.662653693E0
6.577828500E0,-1.514835235E0,-2.514887452E-1,8.115233660E-1,1.736819666E0
6.587824375E0,-1.335268120E0,-3.788087232E-1,1.527379267E0,2.063813079E0
6.597821375E0,-1.052653330E0,-3.393798517E-1,1.711706893E0,2.037939696E0
6.607817375E0,-7.060319942E-1,-1.331625158E-1,1.193295677E0,1.392899137E0
6.617813375E0,-4.768810746E-1,1.805195905E-1,1.931814802E-1,5.452723779E-1
6.627809375E0,-3.741513428E-1,4.297591311E-1,-1.098734506E0,1.237699338E0
6.637805375E0,-1.973734953E-1,6.327263287E-1,-2.287897371E0,2.381968363E0
6.647801375E0,-5.571987212E-2,7.958262232E-1,-3.084544836E0,3.186041576E0
6.657797375E0,6.673017919E-2,8.793796458E-1,-3.672950732E0,3.777344114E0
6.667793375E0,2.227840327E-1,8.682512981E-1,-4.050665660E0,4.148660667E0
6.677790375E0,3.432135786E-1,7.737904063E-1,-4.249054670E0,4.332552682E0
6.687786375E0,4.143559206E-1,6.091820032E-1,-4.240590826E0,4.304114786E0
6.697782375E0,3.795429142E-1,4.052246528E-1,-3.973702853E0,4.012302856E0
6.707778375E0,2.757298395E-1,1.462806345E-1,-3.512259890E0,3.526101885E0
6.717774375E0,2.012054680E-1,-8.206822984E-2,-3.105069147E0,3.112663368E0
6.727770375E0,1.619852690E-1,-2.055612965E-1,-2.698560190E0,2.711221454E0
6.737766375E0,4.380032301E-2,-2.323143729E-1,-2.266188998E0,2.278486562E0
6.747762375E0,-1.709505124E-1,-1.778240789E-1,-2.212066585E0,2.225777181E0
6.757758375E0,-3.261800547E-1,-5.170340141E-2,-2.353889632E0,2.376944061E0
6.767755375E0,-4.255334580E-1,1.182387221E-1,-2.466573079E0,2.505801642E0
6.777751375E0,-4.757620637E-1,3.206935392E-1,-2.474062777E0,2.539720558E0
6.787747375E0,-4.748227085E-1,5.140539441E-1,-2.257600608E0,2.363571147E0
6.797743375E0,-4.762640472E-1,6.016711451E-1,-1.827891068E0,1.982428149E0
6.807739375E0,-5.521769862E-1,5.702704641E-1,-1.177854935E0,1.420369696E0
6.817735375E0,-5.766986006E-1,5.191280848E-1,-3.102947778E-1,8.356782237E-1
6.827731375E0,-4.971725209E-1,5.045697969E-1,8.676560515E-1,1.120088487E0
6.837727375E0,-5.916733199E-1,4.714335161E-1,1.951467878E0,2.092977247E0
6.847723375E0,-7.167840005E-1,4.559360192E-1,2.801184672E0,2.927164588E0
6.857720375E0,-6.997877526E-1,4.915397153E-1,3.549042969E0,3.650619151E0
6.867716375E0,-6.117799942E-1,5.533119673E-1,3.885681792E0,3.972272887E0
6.877712375E0,-6.066247965E-1,3.543403184E-1,3.859838853E0,3.923252054E0
6.887708375E0,-8.185813938E-1,-1.051580074E-1,3.687832480E0,3.779053070E0
6.897704375E0,-9.692445530E-1,-5.682777696E-1,3.545379104E0,3.719151465E0
6.907700375E0,-9.296450159E-1,-9.899855771E-1,3.765311011E0,4.002733854E0
6.917696375E0,-8.011805186E-1,-1.492448878E0,4.256625060E0,4.581282657E0
6.927692375E0,-5.350839669E-1,-1.872090902E0,4.822267746E0,5.200510111E0
6.937688375E0,5.105832562E-2,-1.783439804E0,5.280727460E0,5.573988428E0
6.947685375E0,7.980790092E-1,-1.344244034E0,5.432917619E0,5.653363246E0
6.957681375E0,1.467006766E0,-6.604332869E-1,5.076528071E0,5.325356160E0
6.967677375E0,1.868817924E0,-1.018621512E-3,4.246000670E0,4.639073523E0
6.977673375E0,1.695721921E0,3.546180246E-1,2.803764464E0,3.295803687E0
6.987669375E0,1.266941066E0,4.078804216E-1,1.127001116E0,1.744029133E0
6.997665375E0,8.910729077E-1,2.801190519E-1,-2.163276833E-1,9.587884421E-1
7.007661375E0,5.169470733E-1,1.167491988E-1,-1.049722559E0,1.175917558E0
7.017657375E0,1.178237343E-1,-1.963695649E-1,-1.218697736E0,1.240027262E0
7.027654375E0,-2.953757532E-1,-7.409777324E-1,-9.615816307E-1,1.249373470E0
7.037650375E0,-5.325658634E-1,-1.232732516E0,-5.971901679E-1,1.469657086E0
7.047646375E0,-6.195167376E-1,-1.500054059E0,3.335953474E-2,1.623291726E0
7.057642375E0,-6.895102479E-1,-1.625076301E0,6.482310981E-1,1.880558673E0
7.067638375E0,-6.823484319E-1,-1.586315108E0,9.790238750E-1,1.985064924E0
7.077634375E0,-5.329548495E-1,-1.368794300E0,8.092499685E-1,1.677058204E0
7.087630375E0,-1.891761374E-1,-9.919343810E-1,2.507309461E-1,1.040474620E0
7.097626375E0,1.575459167E-1,-4.441960162E-1,-5.080025876E-1,6.929628025E-1
7.107622375E0,2.474629372E-1,5.670052327E-2,-1.446102970E0,1.468218871E0
7.117619375E0,2.121369839E-1,4.874457508E-1,-2.485919176E0,2.542125019E0
7.127615375E0,1.241368999E-1,7.458097252E-1,-3.377807259E0,3.461390471E0
7.137611375E0,-1.748770639E-2,7.769847402E-1,-4.025171215E0,4.099513924E0
7.147607375E0,-1.683132720E-1,6.739475910E-1,-4.445374936E0,4.499321397E0
7.157603375E0,-2.714996713E-1,5.343039848E-1,-4.636037436E0,4.674616126E0
7.167599375E0,-2.747372746E-1,3.758472546E-1,-4.574518295E0,4.598147383E0
7.177595375E0,-1.852980448E-1,1.588141778E-1,-4.278617023E0,4.285571250E0
7.187591375E0,5.736630186E-2,-1.121266459E-1,-3.827303191E0,3.829375014E0
7.197587375E0,3.619829947E-1,-3.139964673E-1,-3.341791919E0,3.375973741E0
7.207584375E0,6.431068906E-1,-4.514967400E-1,-2.917571161E0,3.021532270E0
7.217580375E0,9.081396876E-1,-5.589430918E-1,-2.430453658E0,2.654098728E0
7.227576375E0,1.120236180E0,-5.788706220E-1,-1.979325768E0,2.346859772E0
7.237572375E0,1.203812041E0,-5.518612365E-1,-1.640729297E0,2.108484498E0
7.247568375E0,1.083969994E0,-4.961084373E-1,-1.421928826E0,1.855531222E0
7.257564375E0,9.130633356E-1,-4.042364002E-1,-1.264890740E0,1.611533526E0
7.267560375E0,7.073099032E-1,-3.000411735E-1,-1.189852837E0,1.416355103E0
7.277556375E0,4.641706896E-1,-2.892276618E-1,-1.089354402E0,1.218933995E0
7.287552375E0,3.192404330E-1,-3.618523460E-1,-8.607048815E-1,9.867443780E-1
7.297548375E0,3.854579575E-1,-5.257513721E-1,-4.243745399E-1,7.778727996E-1
7.307545375E0,5.993172388E-1,-7.647573352E-1,4.112802851E-1,1.055076494E0
7.317541375E0,8.679080665E-1,-1.040119896E0,1.549993958E0,2.058541980E0
7.327537375E0,1.103068901E0,-1.225706867E0,2.647653161E0,3.119164245E0
7.337533375E0,1.379919359E0,-1.171891798E0,3.591640520E0,4.022112561E0
7.347529375E0,1.526140388E0,-9.701607386E-1,4.153136945E0,4.529775141E0
7.357525375E0,1.457489399E0,-6.625809693E-1,4.015177739E0,4.322608143E0
7.367521375E0,1.270731524E0,-2.721270045E-1,3.399557732E0,3.639478600E0
7.377517375E0,6.882970968E-1,3.517370649E-2,2.901358586E0,2.982091838E0
7.387513375E0,-2.031910363E-1,4.412831526E-2,2.614331049E0,2.622586650E0
7.397510375E0,-1.041652963E0,-2.935194449E-1,2.492095590E0,2.716934852E0
7.407506375E0,-1.732225650E0,-8.065456313E-1,2.398702108E0,3.066739859E0
7.417502375E0,-1.946759115E0,-1.261588525E0,2.189565915E0,3.189933472E0
7.427498375E0,-1.472065046E0,-1.837013894E0,2.129974601E0,3.174647594E0
7.437494375E0,-6.185950702E-1,-2.576679365E0,2.534868557E0,3.667082630E0
7.447490375E0,4.765657635E-1,-2.923972400E0,3.483443057E0,4.572866175E0
7.457486375E0,1.535434245E0,-2.508583277E0,4.405401031E0,5.296990336E0
7.467482375E0,2.201026896E0,-1.594747085E0,4.676141149E0,5.408699817E0
7.477478375E0,2.143545550E0,-7.034935717E-1,3.790876207E0,4.411398095E0
7.487475375E0,1.502592482E0,-2.085943021E-2,2.249668275E0,2.705406925E0
7.497471375E0,6.969955610E-1,5.156068184E-1,6.024596786E-1,1.055751328E0
7.507467375E0,5.185647056E-2,8.354294148E-1,-6.848387611E-1,1.081496893E0
7.517463375E0,-3.470655781E-1,8.158658738E-1,-1.606503205E0,1.834923482E0
7.527459375E0,-5.862193295E-1,4.294512021E-1,-2.171820785E0,2.290171819E0
7.537455375E0,-6.481705794E-1,-1.053279786E-1,-2.294424618E0,2.386546335E0
7.547451375E0,-4.923307340E-1,-5.608330946E-1,-2.140771485E0,2.267118405E0
7.557447375E0,-2.591721328E-1,-8.448324685E-1,-1.584162163E0,1.813968537E0
7.567443375E0,-2.600271419E-1,-9.865979927E-1,-8.116110742E-1,1.303726294E0
7.577440375E0,-3.828299265E-1,-9.008600503E-1,-1.848334104E-1,9.961279900E-1
7.587436375E0,-6.414034505E-1,-6.327130263E-1,2.832537442E-1,9.444346688E-1
7.597432375E0,-1.042691575E0,-2.584613306E-1,1.614433783E-1,1.086311164E0
7.607428375E0,-1.382258245E0,2.588103728E-1,-6.494438106E-1,1.548999009E0
7.617424375E0,-1.623705128E0,8.751624146E-1,-1.605326160E0,2.445281104E0
7.627420375E0,-1.864463941E0,1.306121065E0,-2.550370696E0,3.418562374E0
7.637416375E0,-2.097365849E0,1.537418498E0,-3.548904975E0,4.399696088E0
7.647412375E0,-2.116937357E0,1.615696197E0,-4.327096873E0,5.080911859E0
7.657408375E0,-1.951143796E0,1.551161940E0,-4.718504811E0,5.336417631E0
7.667404375E0,-1.618236520E0,1.360939443E0,-4.901715619E0,5.338320111E0
7.677401375E0,-1.231661598E0,1.042394463E0,-4.780691704E0,5.045650570E0
7.687397375E0,-9.114277232E-1,6.561797299E-1,-4.258608436E0,4.404204598E0
7.697393375E0,-6.185878343E-1,3.163958357E-1,-3.558858690E0,3.626049146E0
7.707389375E0,-2.642121403E-1,4.090441637E-2,-2.821221326E0,2.833861499E0
7.717385375E0,-2.465098411E-2,-1.994571140E-1,-1.971484652E0,1.981701931E0
7.727381375E0,1.459845096E-2,-4.117269393E-1,-1.347466874E0,1.409041931E0
7.737377375E0,3.528999299E-2,-4.838463875E-1,-9.208698070E-1,1.040842885E0
7.747373375E0,-1.862045825E-3,-3.699623975E-1,-5.676897955E-1,6.776041224E-1
7.757369375E0,-1.995596230E-1,-9.986032035E-2,-5.284853840E-1,5.736662164E-1
7.767366375E0,-4.368732557E-1,2.750381504E-1,-8.754351872E-1,1.016312448E0
7.777362375E0,-6.572264546E-1,7.000122857E-1,-1.115182139E0,1.471596077E0
7.787358375E0,-8.950800776E-1,1.079274241E0,-1.015219894E0,1.731090023E0
7.797354375E0,-1.049995771E0,1.234830789E0,-6.494660300E-1,1.746168468E0
7.807350375E0,-1.132244460E0,1.145063676E0,1.849825144E-2,1.610431782E0
7.817346375E0,-1.107710859E0,1.002660952E0,8.536490464E-1,1.720775705E0
7.827342375E0,-9.885650691E-1,8.945679346E-1,1.719912876E0,2.176146361E0
7.837338375E0,-7.782138249E-1,7.663588145E-1,2.668755763E0,2.883605367E0
7.847334375E0,-6.108415161E-1,6.121838176E-1,3.737484697E0,3.836233601E0
7.857331375E0,-5.932910983E-1,4.687292520E-1,4.422314102E0,4.486486761E0
7.867327375E0,-7.440827501E-1,2.104517432E-1,4.657903098E0,4.721653349E0
7.877323375E0,-1.196609587E0,-1.609855413E-1,4.400644906E0,4.563273653E0
7.887319375E0,-1.533003265E0,-5.689396378E-1,3.927284147E0,4.254098271E0
7.897315375E0,-1.531985850E0,-9.388322342E-1,3.686973524E0,4.101482705E0
7.907311375E0,-1.290980578E0,-1.269499808E0,3.715999687E0,4.133632094E0
7.917307375E0,-8.511348899E-1,-1.508483990E0,3.874404268E0,4.243932490E0
7.927303375E0,-2.369304939E-1,-1.506906119E0,3.954420490E0,4.238436448E0
7.937299375E0,4.863203810E-1,-1.132204041E0,3.790965085E0,3.986202426E0
7.947295375E0,1.150121445E0,-5.818813533E-1,3.353384024E0,3.592568671E0
7.957292375E0,1.583513415E0,-2.298925658E-1,2.564699298E0,3.022920411E0
7.967288375E0,1.383792993E0,1.107254338E-1,1.569725388E0,2.095514486E0
7.977284375E0,8.566969807E-1,3.603321795E-1,8.322909218E-1,1.247588544E0
7.987280375E0,3.418000142E-1,4.244788396E-1,2.739438075E-1,6.099629043E-1
7.997276375E0,-1.240303344E-1,3.350790053E-1,-2.636334121E-1,4.440315750E-1
8.007272375E0,-5.474000303E-1,9.756883308E-2,-7.423981673E-1,9.275351794E-1
8.017268375E0,-8.264919457E-1,-2.169318469E-1,-1.242662550E0,1.508097667E0
8.027264375E0,-9.134961757E-1,-6.101679169E-1,-1.385062716E0,1.767817546E0
8.037260375E0,-7.816508183E-1,-1.039458211E0,-1.164932004E0,1.746000558E0
8.047256375E0,-5.163896875E-1,-1.398255204E0,-6.469733620E-1,1.624915523E0
8.057252375E0,-2.745735526E-1,-1.633764386E0,4.316414595E-3,1.656682026E0
8.067249375E0,-1.579552218E-2,-1.658685511E0,5.849993080E-1,1.758894913E0
8.077245375E0,1.951430748E-1,-1.500454739E0,8.817051566E-1,1.751242196E0
8.087241375E0,3.612544316E-1,-1.252100394E0,5.996155930E-1,1.434503057E0
8.097237375E0,4.816282828E-1,-8.655989280E-1,-2.102044791E-1,1.012626896E0
8.107233375E0,4.914783561E-1,-4.536503061E-1,-1.063686295E0,1.256494373E0
8.117229375E0,4.340007379E-1,-9.276856139E-2,-1.880348194E0,1.932012417E0
8.127225375E0,4.103673155E-1,2.088899519E-1,-2.461241003E0,2.503945610E0
8.137221375E0,3.338907049E-1,3.693703669E-1,-2.868085590E0,2.910984786E0
8.147217375E0,2.706021237E-1,3.837344907E-1,-3.186359478E0,3.220770776E0
8.157213375E0,2.466835034E-1,3.084109876E-1,-3.331714243E0,3.355039476E0
8.167210375E0,2.791404473E-1,1.142130421E-1,-3.262573256E0,3.276484131E0
8.177206375E0,3.398577154E-1,-1.784440482E-1,-3.036702332E0,3.060866969E0
8.187202375E0,4.871372370E-1,-4.685040246E-1,-2.615996336E0,2.701894805E0
8.197198375E0,7.486077641E-1,-6.739797507E-1,-1.988744463E0,2.229297384E0
8.207194375E0,9.481141774E-1,-8.165774068E-1,-1.589683104E0,2.023069827E0
8.217190375E0,9.668308224E-1,-9.328792571E-1,-1.447551910E0,1.974951159E0
8.227186375E0,9.499237445E-1,-9.474452560E-1,-1.504342992E0,2.015702228E0
8.237182375E0,9.067530204E-1,-7.956641091E-1,-1.672268009E0,2.061980288E0
8.247178375E0,8.264201711E-1,-5.522355680E-1,-1.838882664E0,2.090316693E0
8.257174375E0,7.272582641E-1,-3.453343637E-1,-1.958486291E0,2.117505362E0
8.267171375E0,6.208969729E-1,-1.470240714E-1,-1.955649807E0,2.057108479E0
8.277167375E0,6.158894174E-1,7.760132253E-3,-1.758813817E0,1.863546629E0
8.287163375E0,6.839455989E-1,7.138025053E-2,-1.395523970E0,1.555751867E0
8.297159375E0,7.702591266E-1,1.097670751E-1,-7.109126651E-1,1.053918759E0
8.307155375E0,7.503499420E-1,1.388202086E-3,1.558247888E-1,7.663604422E-1
8.317151375E0,7.602076167E-1,-2.378158354E-1,1.003496811E0,1.281201718E0
8.327147375E0,8.348246665E-1,-4.644474822E-1,1.995424907E0,2.212321009E0
8.337143375E0,7.955992050E-1,-6.193777201E-1,2.808510064E0,2.984013343E0
8.347139375E0,7.084145884E-1,-7.068487772E-1,3.260602160E0,3.410720286E0
8.357135375E0,7.252379049E-1,-6.847378966E-1,3.329485284E0,3.475673785E0
8.367132375E0,8.489665961E-1,-4.805739567E-1,3.188989556E0,3.334868812E0
8.377128375E0,9.098669551E-1,-2.362541903E-1,2.888299999E0,3.037425029E0
8.387124375E0,8.999614795E-1,-3.393862836E-2,2.419670223E0,2.581837811E0
8.397120375E0,6.987504566E-1,2.438252382E-2,2.160602317E0,2.270913710E0
8.407116375E0,3.437412898E-1,-1.158682061E-1,1.994761248E0,2.027475265E0
8.417112375E0,-8.099373087E-2,-3.091717469E-1,1.772048405E0,1.800639526E0
8.427108375E0,-5.216988131E-1,-5.966950549E-1,1.743053817E0,1.914797965E0
8.437104375E0,-8.106497920E-1,-9.817963323E-1,1.813423887E0,2.215757956E0
8.447100375E0,-7.582020217E-1,-1.312382410E0,2.084010808E0,2.576881632E0
8.457096375E0,-4.047400282E-1,-1.391441297E0,2.361514401E0,2.770681079E0
8.467093375E0,2.962743241E-1,-1.122377649E0,2.482040133E0,2.740079066E0
8.477089375E0,1.017106060E0,-4.881602805E-1,2.362161688E0,2.617749613E0
8.487085375E0,1.422927677E0,3.801073898E-1,2.099034644E0,2.564205772E0
8.497081375E0,1.161813830E0,1.178379503E0,1.558120419E0,2.272911980E0
8.507077375E0,4.546508378E-1,1.721403624E0,5.151005226E-1,1.853447158E0
8.517073375E0,-1.767326778E-1,2.093709877E0,-4.524499458E-1,2.149317669E0
8.527069375E0,-6.419874412E-1,2.230000288E0,-1.227301329E0,2.625131942E0
8.537065375E0,-8.716112544E-1,2.016803643E0,-1.686646897E0,2.769834086E0
8.547061375E0,-8.745322309E-1,1.568965834E0,-1.578938845E0,2.391549349E0
8.557057375E0,-7.991417406E-1,9.833437979E-1,-1.146590458E0,1.708877475E0
8.567053375E0,-5.200015126E-1,2.983944514E-1,-5.937180912E-1,8.437665516E-1
8.577050375E0,-1.560195011E-1,-3.669194334E-1,1.599078995E-1,4.295840915E-1
8.587046875E0,1.522486317E-1,-9.381771999E-1,8.492957944E-1,1.274621297E0
8.597042875E0,4.887833744E-1,-1.290891992E0,1.375715357E0,1.948821199E0
8.607038875E0,7.603432721E-1,-1.263214051E0,1.519177378E0,2.117010046E0
8.617034875E0,8.843112606E-1,-9.008888479E-1,1.115366326E0,1.684532328E0
8.627030875E0,7.393308641E-1,-3.615827528E-1,2.301697969E-1,8.545936749E-1
8.637026875E0,4.046912040E-1,1.614226207E-1,-8.163730466E-1,9.253632715E-1
8.647022875E0,1.227533756E-1,6.310220115E-1,-1.815855744E0,1.926288985E0
8.657018875E0,1.473746851E-2,9.320923680E-1,-2.526311742E0,2.692817185E0
8.667014875E0,-9.862147808E-2,9.681315355E-1,-3.076579174E0,3.226816431E0
8.677011875E0,-1.242144486E-1,7.952689835E-1,-3.506464714E0,3.597662683E0
8.687007875E0,-2.719174549E-2,5.116487285E-1,-3.600658681E0,3.636930952E0
8.697003875E0,1.870758176E-2,2.329680916E-1,-3.289861627E0,3.298153064E0
8.706999875E0,-6.543209732E-2,-2.688180652E-2,-2.870634976E0,2.871506426E0
8.716995875E0,-1.468294322E-1,-1.884396075E-1,-2.437508909E0,2.449187222E0
8.726991875E0,-2.974760731E-1,-3.108292864E-1,-1.993420481E0,2.039321474E0
8.736987875E0,-4.733588581E-1,-3.634028448E-1,-1.636414052E0,1.741832709E0
8.746983875E0,-6.632264288E-1,-2.619517529E-1,-1.395801712E0,1.567402449E0
8.756979875E0,-8.570750763E-1,-7.614602365E-2,-1.320068575E0,1.575740127E0
8.766975875E0,-9.286749628E-1,1.583861982E-1,-1.381314066E0,1.671990408E0
8.776971875E0,-9.553483526E-1,3.123516089E-1,-1.537683231E0,1.837042112E0
8.786968875E0,-1.011616109E0,4.135596029E-1,-1.620079855E0,1.954240884E0
8.796964875E0,-1.038008979E0,4.705976567E-1,-1.613499983E0,1.975425774E0
8.806960875E0,-1.000362996E0,4.947784515E-1,-1.514098486E0,1.880964132E0
8.816956875E0,-9.571566041E-1,5.091914727E-1,-1.306936314E0,1.698089293E0
8.826952875E0,-9.444756013E-1,5.323676428E-1,-9.691923666E-1,1.454229456E0
8.836948875E0,-9.389863814E-1,5.517986348E-1,-5.766389591E-1,1.232351268E0
8.846944875E0,-9.454485780E-1,5.402846997E-1,-2.083251840E-1,1.108683883E0
8.856940875E0,-8.798567055E-1,5.348072108E-1,1.966038555E-1,1.048245988E0
8.866936875E0,-7.803708628E-1,5.378706037E-1,8.285264844E-1,1.258864411E0
8.876932875E0,-7.759740490E-1,5.918731851E-1,1.620407884E0,1.891605482E0
8.886928875E0,-8.527560304E-1,6.387622632E-1,2.319699208E0,2.552687699E0
8.896925875E0,-9.050054339E-1,7.519456472E-1,2.768674153E0,3.008324061E0
8.906921875E0,-8.460462043E-1,9.587920703E-1,2.921457805E0,3.189042508E0
8.916917875E0,-7.961840728E-1,1.020086239E0,2.855426368E0,3.134955304E0
8.926913875E0,-8.421915735E-1,8.360726085E-1,2.753356202E0,2.998211872E0
8.936909875E0,-9.161437950E-1,5.320864648E-1,2.568232185E0,2.778174224E0
8.946905875E0,-9.308578746E-1,2.227585973E-1,2.441234170E0,2.622163619E0
8.956901875E0,-8.914322922E-1,-1.641259347E-1,2.556730127E0,2.712647747E0
8.966897875E0,-7.704667027E-1,-5.615517174E-1,2.879243247E0,3.032985484E0
8.976893875E0,-6.119725138E-1,-8.358697101E-1,3.191951171E0,3.355851726E0
8.986889875E0,-3.601151016E-1,-8.826583989E-1,3.387525916E0,3.519105081E0
8.996885875E0,-3.055199414E-2,-6.780177648E-1,3.512967988E0,3.577930351E0
9.006882875E0,2.770976494E-1,-2.358945865E-1,3.406549248E0,3.425931572E0
9.016878875E0,4.881561144E-1,2.805231311E-1,2.951084477E0,3.004311770E0
9.026874875E0,5.041358238E-1,6.872140463E-1,2.267771255E0,2.422643708E0
9.036870875E0,3.136978573E-1,9.339662544E-1,1.488750222E0,1.785238509E0
9.046866875E0,1.224040045E-1,1.097427799E0,6.063141632E-1,1.259740997E0
9.056862875E0,1.071975893E-1,1.024060446E0,-1.151650053E-1,1.036076299E0
9.066858875E0,1.464762604E-1,7.053621957E-1,-6.265794432E-1,9.547737536E-1
9.076854875E0,2.410770468E-1,3.046196530E-1,-8.003300411E-1,8.896288271E-1
9.086850875E0,3.036482477E-1,-1.245939695E-1,-5.279193735E-1,6.216307429E-1
9.096846875E0,3.158757989E-1,-6.000330111E-1,-8.214753270E-2,6.830558922E-1
9.106842875E0,3.605264533E-1,-1.068999514E0,3.938415492E-1,1.194926964E0
9.116839875E0,4.080214857E-1,-1.317935949E0,7.668231565E-1,1.578434178E0
9.126835875E0,4.851693566E-1,-1.447003148E0,8.440584433E-1,1.744030410E0
9.136831875E0,6.583404954E-1,-1.424524405E0,5.671974599E-1,1.668650637E0
9.146827875E0,8.863610020E-1,-1.224995041E0,-1.061386585E-2,1.512071867E0
9.156823875E0,9.765902638E-1,-1.022707912E0,-7.578190291E-1,1.604353358E0
9.166819875E0,1.009063945E0,-8.606605889E-1,-1.718907155E0,2.171080031E0
9.176815875E0,1.061560686E0,-7.029608173E-1,-2.530346906E0,2.832617246E0
9.186811875E0,9.883510610E-1,-5.878991250E-1,-3.083352004E0,3.290824027E0
9.196807875E0,7.932087171E-1,-5.498777879E-1,-3.387486155E0,3.522301535E0
9.206803875E0,5.696997759E-1,-6.300260114E-1,-3.463812785E0,3.566439347E0
9.216799875E0,3.676792060E-1,-7.368597577E-1,-3.392331158E0,3.490853905E0
9.226796875E0,2.671699543E-1,-7.995981889E-1,-3.287795806E0,3.394162387E0
9.236792875E0,3.027439758E-1,-8.421046693E-1,-3.109661551E0,3.235859878E0
9.246788875E0,4.513325429E-1,-9.073232701E-1,-2.796572388E0,2.974517390E0
9.256784875E0,5.973651458E-1,-9.754178240E-1,-2.408737684E0,2.666515006E0
9.266780875E0,7.071404801E-1,-1.019176924E0,-2.121492630E0,2.457539469E0
9.276776875E0,8.558946696E-1,-1.060574919E0,-1.973787285E0,2.398585227E0
9.286772875E0,1.083214826E0,-1.072298659E0,-1.880597870E0,2.420707980E0
9.296768875E0,1.303539081E0,-1.055689935E0,-1.927755665E0,2.555374195E0
9.306764875E0,1.442159169E0,-1.041786645E0,-1.993390076E0,2.671843273E0
9.316760875E0,1.529448304E0,-1.027642377E0,-1.993464335E0,2.714619868E0
9.326756875E0,1.632471713E0,-1.007229382E0,-1.895878984E0,2.697004272E0
9.336753875E0,1.679730518E0,-1.004168656E0,-1.685505520E0,2.582784962E0
9.346749875E0,1.641087439E0,-1.006980582E0,-1.414177757E0,2.388948849E0
9.356745875E0,1.582733104E0,-9.974098599E-1,-1.019134605E0,2.130376926E0
9.366741875E0,1.497353084E0,-1.039670026E0,-3.124465531E-1,1.849487191E0
9.376737875E0,1.404852764E0,-1.133226573E0,5.187024075E-1,1.877995192E0
9.386733875E0,1.236486720E0,-1.287521219E0,1.282483258E0,2.198038581E0
9.396729875E0,1.115788641E0,-1.358359798E0,1.891391246E0,2.582147648E0
9.406725875E0,1.110608593E0,-1.326664819E0,2.514122052E0,3.051933924E0
9.416721875E0,1.129466448E0,-1.134579107E0,2.917226175E0,3.327637715E0
9.426717875E0,1.190025330E0,-8.353688961E-1,3.049624094E0,3.378492059E0
9.436713875E0,1.163938269E0,-5.080056208E-1,2.965545226E0,3.226031695E0
9.446709875E0,9.715047942E-1,-1.834153875E-1,2.771428192E0,2.942495028E0
9.456706875E0,4.982068934E-1,3.143536225E-2,2.669652725E0,2.715924146E0
9.466702875E0,-2.319933973E-1,8.306320667E-2,2.688700615E0,2.699968783E0
9.476698875E0,-9.050541119E-1,-1.556463026E-2,2.654977968E0,2.805044245E0
9.486694875E0,-1.221689026E0,-2.225560644E-1,2.479456249E0,2.773041393E0
9.496690875E0,-1.295549153E0,-5.455523832E-1,2.413150578E0,2.792735348E0
9.506686875E0,-1.014415902E0,-9.242745676E-1,2.536905143E0,2.884304214E0
9.516682875E0,-3.273575377E-1,-1.112749039E0,2.920400628E0,3.142310171E0
9.526678875E0,5.914789000E-1,-9.816280787E-1,3.577939324E0,3.757005561E0
9.536674875E0,1.402115097E0,-4.873032980E-1,4.162978978E0,4.419704201E0
9.546670875E0,1.864382518E0,2.901555783E-1,4.081103926E0,4.496167444E0
9.556666875E0,1.342933527E0,1.076227623E0,3.289467525E0,3.712456458E0
9.566662875E0,2.833667417E-1,1.748882467E0,1.953754724E0,2.637431348E0
9.576659875E0,-6.603915524E-1,2.166915848E0,4.932886541E-1,2.318399230E0
9.586654792E0,-1.608219655E0,2.298170344E0,-8.901888818E-1,2.942854674E0
9.596650792E0,-2.411189421E0,2.150969321E0,-2.008937822E0,3.804777867E0
9.606646792E0,-2.679045108E0,1.861259082E0,-2.525698954E0,4.125617925E0
9.616642792E0,-2.596766013E0,1.395817207E0,-2.494221638E0,3.861688877E0
9.626638792E0,-2.504804513E0,7.399240641E-1,-1.955759735E0,3.262901992E0
9.636634792E0,-2.108519998E0,9.602217145E-2,-1.117920390E0,2.388477095E0
9.646630792E0,-1.644500605E0,-5.023459180E-1,-3.553937674E-2,1.719882760E0
9.656626792E0,-1.265863424E0,-9.856915281E-1,8.697464311E-1,1.824953931E0
9.666622792E0,-8.235753545E-1,-1.184417265E0,1.288481331E0,1.934245270E0
9.676618792E0,-3.048000030E-1,-1.027968140E0,1.065978988E0,1.511930138E0
9.686614792E0,4.670258850E-2,-6.286272843E-1,2.795249748E-1,6.895560934E-1
9.696611792E0,5.719468608E-2,-2.133716600E-1,-7.711740696E-1,8.021895930E-1
9.706607792E0,-3.871076033E-2,2.070109857E-1,-1.929823825E0,1.941281037E0
9.716603792E0,-1.282366021E-1,5.727682485E-1,-2.830590904E0,2.890804898E0
9.726599792E0,-1.986147130E-1,7.609576683E-1,-3.486218145E0,3.573824469E0
9.736595792E0,-2.308083860E-1,8.113981625E-1,-3.923063627E0,4.012738181E0
9.746591792E0,-1.911738387E-1,7.415935173E-1,-4.080262511E0,4.151511838E0
9.756587792E0,-1.869968071E-1,5.606722231E-1,-3.891985676E0,3.936606870E0
9.766583792E0,-2.152311842E-1,3.335167024E-1,-3.499611778E0,3.522050603E0
9.776579792E0,-2.129134941E-1,1.234792344E-1,-3.022959622E0,3.032962933E0
9.786575792E0,-1.914283387E-1,-3.719421186E-2,-2.510613722E0,2.518175824E0
9.796571792E0,-2.713387267E-1,-4.666443542E-2,-1.917694361E0,1.937357462E0
9.806567792E0,-4.867283705E-1,-2.418097761E-2,-1.323942356E0,1.410784387E0
9.816564792E0,-7.372572953E-1,7.707167443E-2,-9.302458173E-1,1.189472842E0
9.826560792E0,-9.015339419E-1,2.811614643E-1,-7.613793987E-1,1.213059688E0
9.836556792E0,-9.982368024E-1,5.989384488E-1,-7.872007030E-1,1.405307413E0
9.846552792E0,-1.062237209E0,9.706442302E-1,-9.428968531E-1,1.720335021E0
9.856548792E0,-1.097377221E0,1.258788439E0,-1.080926811E0,1.989268174E0
9.866544792E0,-1.085184022E0,1.469439207E0,-1.119776296E0,2.142609367E0
9.876540792E0,-1.035420562E0,1.633488251E0,-9.715885556E-1,2.164339144E0
9.886536792E0,-9.939581023E-1,1.626278196E0,-6.112345952E-1,2.001584675E0
9.896532792E0,-9.167906432E-1,1.475969962E0,-1.516913921E-1,1.744133794E0
9.906528792E0,-8.394699870E-1,1.324959625E0,3.723840219E-1,1.612109713E0
9.916524792E0,-8.041120201E-1,1.144372682E0,1.032634656E0,1.738539418E0
9.926520792E0,-7.844951963E-1,9.713222880E-1,1.785344388E0,2.178612927E0
9.936516792E0,-7.563942088E-1,8.001822527E-1,2.526474295E0,2.755992779E0
9.946513792E0,-7.346449055E-1,6.779212857E-1,2.928419500E0,3.094336952E0
9.956509792E0,-7.445114972E-1,6.475561832E-1,3.190626191E0,3.339718832E0
9.966505792E0,-9.116379306E-1,4.961227264E-1,3.240147430E0,3.402319333E0
9.976501792E0,-1.183364620E0,1.861037911E-1,3.172178226E0,3.390826027E0
9.986497792E0,-1.448618588E0,-1.155964568E-1,3.195721455E0,3.510625866E0
9.996493792E0,-1.511261856E0,-3.819941401E-1,3.333050916E0,3.679546212E0
1.000648979E1,-1.349371165E0,-6.500359143E-1,3.645841286E0,3.941510867E0
1.001648579E1,-1.023505106E0,-8.201832385E-1,3.952315493E0,4.164259958E0
1.002648179E1,-5.774841741E-1,-7.457345154E-1,4.132260046E0,4.238535245E0
1.003647779E1,-3.729471087E-2,-3.572013610E-1,4.078932855E0,4.094713291E0
1.004647379E1,5.163828170E-1,2.280887729E-1,3.698303674E0,3.741139635E0
1.005646979E1,9.084123141E-1,8.470161112E-1,2.952147501E0,3.202783804E0
1.006646579E1,1.055191314E0,1.404244507E0,2.184855983E0,2.803377786E0
1.007646279E1,7.858568667E-1,1.719524036E0,1.373260696E0,2.336702562E0
1.008645879E1,3.547094969E-1,1.838942598E0,6.864157552E-1,1.994666713E0
1.009645479E1,-5.415676519E-2,1.788740159E0,2.190320206E-1,1.802914124E0
1.010645079E1,-3.557082014E-1,1.540151633E0,8.915249705E-3,1.580719728E0
1.011644679E1,-5.362990183E-1,1.052979678E0,-5.887035191E-2,1.183151959E0
1.012644279E1,-4.473279311E-1,3.924374134E-1,1.440753937E-3,5.950726654E-1
1.013643879E1,-1.664136578E-1,-2.066176508E-1,2.594959223E-1,3.711098124E-1
1.014643479E1,2.385760465E-1,-6.346507935E-1,4.340926123E-1,8.050692863E-1
1.015643079E1,7.301796792E-1,-1.092582869E0,3.924768090E-1,1.371472835E0
1.016642679E1,1.165672407E0,-1.517538988E0,2.596491194E-1,1.931096685E0
1.017642279E1,1.548754056E0,-1.705103048E0,-1.386784136E-2,2.303520751E0
1.018641879E1,1.871129913E0,-1.651837545E0,-4.137793851E-1,2.530001542E0
1.019641479E1,1.958957284E0,-1.426167619E0,-1.025039123E0,2.631002266E0
1.020641179E1,1.762854974E0,-1.223042656E0,-1.787582703E0,2.792658754E0
1.021640779E1,1.534452644E0,-9.561980993E-1,-2.491804984E0,3.078628233E0
1.022640379E1,1.349536057E0,-6.766619416E-1,-3.056981061E0,3.409435754E0
1.023639979E1,1.142670630E0,-5.098549855E-1,-3.433028364E0,3.653947457E0
1.024639579E1,9.323896989E-1,-4.403768342E-1,-3.657693007E0,3.800263207E0
1.025639179E1,8.029054472E-1,-4.164269312E-1,-3.780585108E0,3.887273119E0
1.026638779E1,7.993699282E-1,-4.757717116E-1,-3.730145856E0,3.844390603E0
1.027638379E1,8.970456192E-1,-5.844336630E-1,-3.442410221E0,3.605057791E0
1.028637979E1,1.051917750E0,-6.976741304E-1,-2.908180532E0,3.170298749E0
1.029637579E1,1.175142265E0,-8.039629161E-1,-2.377321764E0,2.771096260E0
1.030637179E1,1.212487262E0,-8.445612308E-1,-1.831685327E0,2.353397580E0
1.031636779E1,1.183417976E0,-8.108200921E-1,-1.262334922E0,1.910862837E0
1.032636379E1,1.087655932E0,-6.942206186E-1,-8.353922850E-1,1.537146045E0
1.033636079E1,9.739987779E-1,-4.664535522E-1,-7.057332015E-1,1.290082124E0
1.034635679E1,9.634435304E-1,-1.865370698E-1,-7.496469605E-1,1.234904887E0
1.035635279E1,9.446502869E-1,6.363418814E-2,-8.149170899E-1,1.249201080E0
1.036634879E1,8.808108249E-1,2.092192964E-1,-8.481438929E-1,1.240543625E0
1.037634479E1,8.812708546E-1,1.927026663E-1,-8.060877943E-1,1.209772776E0
1.038634079E1,9.822771196E-1,1.238765527E-1,-6.470400202E-1,1.182740262E0
1.039633679E1,1.081703613E0,-1.205003338E-1,-3.394215131E-1,1.140092102E0
1.040633279E1,1.203566019E0,-5.186672876E-1,7.401230156E-2,1.312655606E0
1.041632879E1,1.344837819E0,-9.434130161E-1,5.446231145E-1,1.730673631E0
1.042632479E1,1.450891108E0,-1.301276501E0,9.611606312E-1,2.173070477E0
1.043632079E1,1.673297411E0,-1.588047492E0,1.390727499E0,2.693685586E0
1.044631679E1,1.731241125E0,-1.769197156E0,1.943996891E0,3.147439963E0
1.045631279E1,1.674872797E0,-1.833139529E0,2.420431530E0,3.467576706E0
1.046630879E1,1.611081136E0,-1.815360485E0,2.831160423E0,3.729153451E0
1.047630579E1,1.394337423E0,-1.760452938E0,3.033690432E0,3.774473345E0
1.048630179E1,9.243306278E-1,-1.618338262E0,3.215041825E0,3.716167350E0
1.049629779E1,2.228810965E-1,-1.397677791E0,3.554126539E0,3.825571153E0
1.050629379E1,-6.586907436E-1,-1.278669119E0,3.769780623E0,4.034862346E0
1.051628979E1,-1.439944682E0,-1.310396696E0,3.793751283E0,4.264168030E0
1.052628579E1,-1.787086128E0,-1.437882808E0,3.601704748E0,4.270065677E0
1.053628179E1,-1.731847628E0,-1.677149557E0,3.303354077E0,4.089532369E0
1.054627779E1,-1.273532632E0,-1.930014736E0,3.035396649E0,3.815819056E0
1.055627379E1,-4.820941597E-1,-2.061453712E0,2.866807389E0,3.563788825E0
1.056626979E1,3.711691166E-1,-1.902428158E0,2.707050932E0,3.329433008E0
1.057626579E1,1.195875761E0,-1.311236064E0,2.402131500E0,2.986585775E0
1.058626179E1,1.462907867E0,-4.071233899E-1,1.912865730E0,2.442315333E0
1.059625775E1,8.240149190E-1,5.391379876E-1,1.033342754E0,1.427398895E0
1.060625375E1,-5.031821430E-3,1.278278379E0,-1.337837094E-1,1.285270016E0
1.061625075E1,-9.210520940E-1,1.800662339E0,-1.427131094E0,2.475363605E0
1.062624675E1,-1.711020430E0,2.130576280E0,-2.714988527E0,3.852026597E0
1.063624275E1,-2.224663388E0,2.165829728E0,-3.603668827E0,4.756718892E0
1.064623875E1,-2.425981561E0,1.969986449E0,-4.024975333E0,5.095749167E0
1.065623475E1,-2.328959589E0,1.597535622E0,-3.985131821E0,4.884408712E0
1.066623075E1,-2.105968127E0,1.085659766E0,-3.450896285E0,4.185981850E0
1.067622675E1,-1.867221634E0,3.809124783E-1,-2.475157961E0,3.123782623E0
1.068622275E1,-1.554366214E0,-4.023692746E-1,-1.381305295E0,2.118008423E0
1.069621875E1,-1.115532241E0,-1.040381706E0,-4.850353092E-1,1.600645346E0
1.070621475E1,-6.454456307E-1,-1.465948420E0,1.744978720E-1,1.611227587E0
1.071621075E1,-1.875473955E-1,-1.587072322E0,3.603182924E-1,1.638231319E0
1.072620675E1,2.170122461E-1,-1.419040301E0,6.517891288E-2,1.437017043E0
1.073620275E1,4.214620417E-1,-1.040011650E0,-5.475490612E-1,1.248625027E0
1.074619875E1,5.620864087E-1,-5.873949122E-1,-1.333189142E0,1.561527202E0
1.075619575E1,5.790813410E-1,-8.308771016E-2,-1.982452274E0,2.066967776E0
1.076619175E1,4.245900097E-1,3.642362192E-1,-2.376614835E0,2.441565640E0
1.077618775E1,3.827167828E-1,6.927290670E-1,-2.620923784E0,2.737807002E0
1.078618375E1,3.956385447E-1,7.498437193E-1,-2.777158463E0,2.903688101E0
1.079617975E1,4.208893070E-1,5.584810887E-1,-2.800797002E0,2.886782427E0
1.080617575E1,4.613325973E-1,4.039604482E-1,-2.550611016E0,2.623285795E0
1.081617175E1,4.367203510E-1,2.797327154E-1,-2.114786459E0,2.177451911E0
1.082616775E1,3.257092077E-1,1.219212620E-1,-1.631369659E0,1.668028251E0
1.083616375E1,1.428466013E-1,3.140371419E-2,-1.153255699E0,1.162493033E0
1.084615975E1,-6.465193257E-2,1.931749751E-1,-8.068683976E-1,8.321857091E-1
1.085615575E1,-2.790047188E-1,5.249222369E-1,-7.703092664E-1,9.730176535E-1
1.086615175E1,-4.702911164E-1,8.381733669E-1,-9.904797399E-1,1.380129864E0
1.087614775E1,-6.764301726E-1,1.144715986E0,-1.144004234E0,1.754046224E0
1.088614375E1,-9.349937564E-1,1.497980636E0,-1.191067303E0,2.129976674E0
1.089613975E1,-1.137425678E0,1.821406799E0,-1.073796716E0,2.400895517E0
1.090613675E1,-1.286719419E0,2.018926767E0,-8.855210495E-1,2.552618201E0
1.091613275E1,-1.402977123E0,2.136896828E0,-6.320664704E-1,2.633283289E0
1.092612875E1,-1.432224019E0,2.237894029E0,-3.135148394E-1,2.675392846E0
1.093612475E1,-1.427591854E0,2.258823261E0,7.033966541E-2,2.673059800E0
1.094612075E1,-1.505293603E0,2.151231423E0,5.258862966E-1,2.677734464E0
1.095611675E1,-1.550986377E0,1.978316392E0,8.742189664E-1,2.661494560E0
1.096611275E1,-1.490402353E0,1.788792492E0,1.166321302E0,2.604108894E0
1.097610875E1,-1.317413355E0,1.586343467E0,1.608153289E0,2.614999148E0
1.098610475E1,-1.133193171E0,1.391655452E0,2.092948862E0,2.757039463E0
1.099610075E1,-1.035010819E0,1.147785628E0,2.337853058E0,2.802537451E0
1.100609675E1,-1.093174096E0,7.121943748E-1,2.381573274E0,2.715537091E0
1.101609275E1,-1.252195558E0,9.993330091E-2,2.620936648E0,2.906422078E0
1.102608875E1,-1.293122997E0,-6.539153226E-1,3.017749752E0,3.347623919E0
1.103608475E1,-1.115459297E0,-1.282276851E0,3.564049264E0,3.948535237E0
1.104608075E1,-8.096730146E-1,-1.717498853E0,4.252381736E0,4.657050905E0
1.105607775E1,-4.596269645E-1,-1.979015865E0,5.058983501E0,5.451703844E0
1.106607375E1,-2.642649114E-3,-1.943139689E0,5.808001301E0,6.124432867E0
1.107606975E1,2.745231204E-1,-1.431908269E0,6.099733508E0,6.271560659E0
1.108606575E1,4.116378424E-1,-4.473148479E-1,5.768820278E0,5.800760613E0
1.109606175E1,5.053817193E-1,7.518800122E-1,4.697910917E0,4.784464570E0
1.110605775E1,3.925952151E-1,1.869724388E0,3.296288887E0,3.809923978E0
1.111605375E1,-1.386506394E-2,2.581155701E0,1.760127686E0,3.124196931E0
1.112604975E1,-4.212228906E-1,2.871549773E0,3.820091236E-1,2.927312384E0
1.113604575E1,-7.083363819E-1,2.847678807E0,-6.937411469E-1,3.015342733E0
1.114604175E1,-8.424339406E-1,2.555500750E0,-1.466119743E0,3.064275792E0
1.115603775E1,-7.793791750E-1,2.025535144E0,-1.792204342E0,2.814644013E0
1.116603375E1,-5.395756517E-1,1.256544863E0,-1.540454811E0,2.059865991E0
1.117602975E1,-3.331910124E-1,4.001803695E-1,-1.032600743E0,1.156470870E0
1.118602575E1,-6.940016404E-2,-4.198991541E-1,-4.500175041E-1,6.193927965E-1
1.119602175E1,1.902398922E-1,-1.101251440E0,9.395890832E-2,1.121505340E0
1.120601875E1,4.382726406E-1,-1.599246225E0,4.036777353E-1,1.706642057E0
1.121601475E1,6.772875206E-1,-1.852983810E0,3.849181134E-1,2.010081923E0
1.122601075E1,8.888982551E-1,-1.821544793E0,6.762655735E-2,2.027988879E0
1.123600675E1,1.117554646E0,-1.618022073E0,-4.111498922E-1,2.008971889E0
1.124600275E1,1.326704873E0,-1.350601420E0,-9.174053317E-1,2.103782916E0
1.125599875E1,1.359435539E0,-1.088106314E0,-1.428581788E0,2.252306875E0
1.126599475E1,1.375378850E0,-8.553861811E-1,-1.901933776E0,2.498140225E0
1.127599075E1,1.407540875E0,-6.904209517E-1,-2.301816668E0,2.784997734E0
1.128598675E1,1.379368113E0,-6.125832189E-1,-2.665377241E0,3.063029616E0
1.129598275E1,1.373156031E0,-6.215210900E-1,-2.930708685E0,3.295587860E0
1.130597875E1,1.393796410E0,-7.036162902E-1,-3.088639641E0,3.460843704E0
1.131597475E1,1.423915710E0,-8.857804466E-1,-3.069910424E0,3.498069891E0
1.132597075E1,1.480451707E0,-1.064546567E0,-2.896224146E0,3.422442250E0
1.133596675E1,1.518490038E0,-1.155350610E0,-2.582121077E0,3.210606840E0
1.134596275E1,1.481471169E0,-1.178218339E0,-2.244903379E0,2.936417283E0
1.135595875E1,1.416933111E0,-1.157990482E0,-2.022705676E0,2.727632609E0
1.136595575E1,1.363498039E0,-1.019293868E0,-1.746955664E0,2.439250086E0
1.137595175E1,1.236868982E0,-8.468567745E-1,-1.526138488E0,2.139184415E0
1.138594775E1,1.065185083E0,-7.453031371E-1,-1.536630732E0,2.012791602E0
1.139594375E1,9.576034775E-1,-6.529579141E-1,-1.626859701E0,1.997506182E0
1.140593975E1,8.287128644E-1,-5.720813468E-1,-1.689022036E0,1.966427602E0
1.141593575E1,7.372793685E-1,-5.140535787E-1,-1.737890725E0,1.956552100E0
1.142593175E1,7.539068033E-1,-5.247171093E-1,-1.679303378E0,1.914095961E0
1.143592775E1,8.331323361E-1,-6.361703387E-1,-1.482249872E0,1.815457758E0
1.144592375E1,8.598025100E-1,-7.576261441E-1,-1.141650730E0,1.617598256E0
1.145591975E1,8.822162032E-1,-8.714277980E-1,-7.734708560E-1,1.461488625E0
1.146591575E1,9.162507990E-1,-1.025829301E0,-3.793848932E-1,1.426805586E0
1.147591175E1,9.767339592E-1,-1.211333753E0,9.251640022E-2,1.558813001E0
1.148590775E1,1.034836279E0,-1.337026962E0,5.778452396E-1,1.786737906E0
1.149590375E1,1.000280697E0,-1.416122687E0,1.066016411E0,2.035277849E0
1.150589975E1,8.805013610E-1,-1.383823252E0,1.570015410E0,2.270506073E0
1.151589575E1,6.438600120E-1,-1.135375571E0,2.073049618E0,2.449728173E0
1.152589275E1,2.605273712E-1,-7.712455519E-1,2.403278723E0,2.537408685E0
1.153588875E1,-2.520012537E-1,-6.349587956E-1,2.554735057E0,2.644494000E0
1.154588475E1,-9.413857864E-1,-8.153367008E-1,2.690008637E0,2.964308959E0
1.155588075E1,-1.613979893E0,-1.188672503E0,2.788310857E0,3.434028371E0
1.156587675E1,-1.959048355E0,-1.583835304E0,2.963981681E0,3.889934721E0
1.157587275E1,-1.936395803E0,-2.098915507E0,3.263867830E0,4.336808530E0
1.158586875E1,-1.675390714E0,-2.803670908E0,3.838333379E0,5.039871797E0
1.159586500E1,-1.124763094E0,-3.531777311E0,4.543143305E0,5.863334724E0
1.160586100E1,-1.910130402E-1,-3.877688649E0,5.017142580E0,6.343869080E0
1.161585700E1,1.116031154E0,-3.693928787E0,5.320581497E0,6.572611573E0
1.162585300E1,2.092526986E0,-2.915880731E0,5.275847958E0,6.380877785E0
1.163584900E1,2.569347249E0,-1.568886897E0,4.502845464E0,5.416508900E0
1.164584500E1,2.170324775E0,3.904514797E-2,2.911329258E0,3.631483471E0
1.165584100E1,1.472419241E0,1.537869464E0,1.174096929E0,2.431370912E0
1.166583700E1,5.511855908E-1,2.628168777E0,-4.690694869E-1,2.726004926E0
1.167583300E1,-6.824563131E-1,3.269884907E0,-2.054311046E0,3.921490507E0
1.168582900E1,-1.645235454E0,3.578324364E0,-3.176689353E0,5.059897251E0
1.169582600E1,-2.255018039E0,3.675096660E0,-3.738381659E0,5.706745066E0
1.170582200E1,-2.506518625E0,3.479947007E0,-3.756311561E0,5.701100186E0
1.171581800E1,-2.555599276E0,2.941140118E0,-3.152401189E0,5.011888477E0
1.172581400E1,-2.451292404E0,2.190979479E0,-2.130569263E0,3.917722669E0
1.173581000E1,-2.098547279E0,1.400639845E0,-1.030986326E0,2.725550488E0
1.174580600E1,-1.668441444E0,5.940669873E-1,-1.972868103E-1,1.782002953E0
1.175580200E1,-1.223041048E0,-9.224260435E-2,2.385441792E-1,1.249496470E0
1.176579800E1,-6.667862137E-1,-5.583835132E-1,2.747010219E-1,9.120617600E-1
1.177579400E1,-1.366593701E-1,-7.201864953E-1,3.915529490E-2,7.340827669E-1
1.178579000E1,1.653380625E-1,-6.448696800E-1,-2.158756936E-1,6.998541949E-1
1.179578600E1,9.744911134E-2,-5.290470821E-1,-5.217026138E-1,7.493735795E-1
1.180578200E1,-6.962776691E-2,-3.221842137E-1,-8.789891249E-1,9.387611918E-1
1.181577800E1,-4.819742918E-2,-5.240570683E-2,-1.292069183E0,1.294029414E0
1.182577400E1,1.080637081E-1,1.676793973E-1,-1.786850631E0,1.797951424E0
1.183577000E1,1.919108802E-1,2.148231582E-1,-2.128936136E0,2.148336064E0
1.184576600E1,2.692596030E-1,1.357810360E-1,-2.264341863E0,2.284333884E0
1.185576200E1,2.719990236E-1,-1.555875563E-2,-2.333224402E0,2.349076766E0
1.186575800E1,3.506266786E-1,-2.144173249E-1,-2.385157617E0,2.420307980E0
1.187575500E1,5.860846974E-1,-3.912936249E-1,-2.351044376E0,2.454387018E0
1.188575100E1,8.598927033E-1,-5.103545204E-1,-2.199840642E0,2.416438712E0
1.189574700E1,1.065732821E0,-5.804910682E-1,-2.122737502E0,2.445152517E0
1.190574300E1,1.281940782E0,-5.563376456E-1,-2.021336843E0,2.457373878E0
1.191573900E1,1.312719210E0,-4.389527814E-1,-1.861700839E0,2.319879583E0
1.192573500E1,1.204006315E0,-2.350158779E-1,-1.656472340E0,2.061253085E0
1.193573100E1,1.009843087E0,1.529448889E-2,-1.380385528E0,1.710403808E0
1.194572700E1,7.994623142E-1,2.592829923E-1,-1.233819221E0,1.492875591E0
1.195572300E1,5.779004958E-1,5.079895044E-1,-1.194387937E0,1.420769110E0
1.196571900E1,3.487899220E-1,8.255135603E-1,-1.133205596E0,1.444742874E0
1.197571500E1,5.852478147E-2,1.198956074E0,-9.660144049E-1,1.540812983E0
1.198571100E1,-2.732469656E-1,1.558095276E0,-7.581663537E-1,1.754178159E0
1.199570700E1,-5.133899197E-1,1.856422557E0,-5.438390028E-1,2.001408200E0
1.200570300E1,-6.879711145E-1,2.093196200E0,-2.165551400E-1,2.213971706E0
1.201569900E1,-8.598574738E-1,2.213672816E0,1.874862921E-1,2.382195063E0
1.202569500E1,-9.715996653E-1,2.190813272E0,6.034987289E-1,2.471412434E0
1.203569100E1,-9.415837146E-1,2.062895051E0,9.859557492E-1,2.472695821E0
1.204568700E1,-8.585519367E-1,1.897405692E0,1.375622971E0,2.495916334E0
1.205568300E1,-7.290383027E-1,1.720630329E0,1.767777014E0,2.572372669E0
1.206568000E1,-5.593351476E-1,1.500000849E0,2.014150615E0,2.572870198E0
1.207567600E1,-3.320595762E-1,1.216444292E0,2.155643878E0,2.497358766E0
1.208567200E1,-1.860929006E-1,8.256745049E-1,2.336368450E0,2.484952010E0
1.209566800E1,-2.000721315E-1,4.221069165E-1,2.601881157E0,2.643480407E0
1.210566400E1,-2.945043719E-1,9.271118559E-2,2.901412965E0,2.917794609E0
1.211566000E1,-3.316969027E-1,-1.712096172E-1,3.191302130E0,3.213058489E0
1.212565600E1,-3.310227187E-1,-3.074277417E-1,3.515974626E0,3.544878761E0
1.213565200E1,-3.681614551E-1,-3.227128751E-1,3.585074097E0,3.618348067E0
1.214564800E1,-3.785276914E-1,-9.849795565E-2,3.511236627E0,3.532954530E0
1.215564400E1,-4.277171007E-1,3.776859116E-1,3.319887664E0,3.368566857E0
1.216564000E1,-4.473212068E-1,9.269099808E-1,2.904687406E0,3.081633869E0
1.217563600E1,-4.617278691E-1,1.371548339E0,2.342367108E0,2.753365421E0
1.218563200E1,-4.312705998E-1,1.706154377E0,1.729350282E0,2.467308146E0
1.219562800E1,-3.898055086E-1,1.827991933E0,1.255908247E0,2.251845547E0
1.220562400E1,-3.384236857E-1,1.709695159E0,1.137345425E0,2.081139770E0
1.221562000E1,-3.464916739E-1,1.451789095E0,1.226094464E0,1.931594080E0
1.222561600E1,-3.607596110E-1,1.061119367E0,1.461104001E0,1.841452338E0
1.223561200E1,-2.344235002E-1,6.332454883E-1,1.752077240E0,1.877692435E0
1.224560800E1,-6.110150322E-2,2.648122108E-1,2.008431453E0,2.026735257E0
1.225560500E1,1.148330297E-1,3.703027055E-2,2.125764606E0,2.129186001E0
1.226560100E1,3.345078054E-1,-5.022772864E-2,1.967347746E0,1.996215282E0
1.227559700E1,5.491292712E-1,-6.862840466E-2,1.598006616E0,1.691117370E0
1.228559300E1,6.977241240E-1,-4.020556446E-2,1.130695387E0,1.329250728E0
1.229558900E1,8.192950465E-1,-4.750475340E-2,5.929117602E-1,1.012445273E0
1.230558500E1,9.103896962E-1,-6.658023465E-2,8.711415768E-2,9.169684853E-1
1.231558100E1,9.256187694E-1,-1.086973635E-1,-4.298785239E-1,1.026343397E0
1.232557700E1,8.655351202E-1,-1.920995991E-1,-1.018332367E0,1.350205210E0
1.233557300E1,8.137722051E-1,-3.050787508E-1,-1.594937412E0,1.816348974E0
1.234556900E1,7.330611871E-1,-4.500529163E-1,-2.056233026E0,2.228905693E0
1.235556500E1,5.778648278E-1,-6.423376894E-1,-2.370733121E0,2.523271883E0
1.236556100E1,4.639993662E-1,-8.213499042E-1,-2.575590906E0,2.742914434E0
1.237555700E1,3.695718035E-1,-9.506248257E-1,-2.732519649E0,2.916664964E0
1.238555300E1,2.834820780E-1,-1.053180018E0,-2.878359733E0,3.078068386E0
1.239554900E1,2.138512413E-1,-1.172544713E0,-3.030163391E0,3.256145518E0
1.240554500E1,1.453259669E-1,-1.242420913E0,-3.186547174E0,3.423275077E0
1.241554100E1,9.557449400E-2,-1.295694164E0,-3.344103323E0,3.587615488E0
1.242553700E1,1.142585407E-1,-1.345556003E0,-3.444193037E0,3.699465049E0
1.243553300E1,1.447247270E-1,-1.429152184E0,-3.457290215E0,3.743831840E0
1.244552900E1,2.072988515E-1,-1.514502821E0,-3.414528943E0,3.741082665E0
1.245552600E1,2.909453179E-1,-1.613061880E0,-3.249913450E0,3.639856486E0
1.246552200E1,4.021098045E-1,-1.758119314E0,-3.038543621E0,3.533471827E0
1.247551800E1,5.722734278E-1,-1.883258938E0,-2.802961056E0,3.425018509E0
1.248551400E1,7.599998944E-1,-1.990024857E0,-2.622291448E0,3.378492446E0
1.249551000E1,9.367751107E-1,-2.107152188E0,-2.264856418E0,3.232214805E0
1.250550600E1,1.077597114E0,-2.268596735E0,-1.630948659E0,2.994618543E0
1.251550200E1,1.129914637E0,-2.410076989E0,-9.675721031E-1,2.832203021E0
1.252549800E1,1.114947373E0,-2.462614514E0,-2.519588614E-1,2.714969826E0
1.253549400E1,1.004113254E0,-2.471692316E0,2.992803776E-1,2.684599612E0
1.254549000E1,9.682721610E-1,-2.540269631E0,5.812828177E-1,2.780001886E0
1.255548600E1,1.040615229E0,-2.544026759E0,7.906844741E-1,2.860093380E0
1.256548200E1,1.137039762E0,-2.427070021E0,1.066297077E0,2.884530770E0
1.257547800E1,1.083820451E0,-2.297018004E0,1.506704097E0,2.953153521E0
1.258547400E1,7.727057478E-1,-2.162574875E0,2.019093266E0,3.057865576E0
1.259547075E1,2.866660331E-1,-2.085691591E0,2.531425717E0,3.292476725E0
1.260546675E1,-2.986472704E-1,-2.039024670E0,2.969763408E0,3.614734637E0
1.261546275E1,-8.900179969E-1,-2.102581565E0,3.146067485E0,3.887251200E0
1.262545875E1,-1.249566211E0,-2.329190262E0,3.064816915E0,4.047177500E0
1.263545475E1,-1.250676451E0,-2.669231726E0,2.965796072E0,4.181499245E0
1.264545075E1,-1.059537696E0,-3.072354853E0,3.202822899E0,4.562900283E0
1.265544675E1,-6.380180588E-1,-3.327989274E0,3.635547847E0,4.969888107E0
1.266544375E1,6.657771304E-2,-3.307168508E0,4.172656120E0,5.324739921E0
1.267543975E1,8.080850570E-1,-2.869669308E0,4.569578567E0,5.456102242E0
1.268543575E1,1.414894626E0,-1.722311404E0,4.482139304E0,5.005782268E0
1.269543175E1,1.495392220E0,-2.431118779E-2,3.681532105E0,3.973722130E0
1.270542775E1,9.660991895E-1,1.767593557E0,2.377182600E0,3.115883782E0
1.271542375E1,2.395667110E-1,3.139106959E0,1.014839240E0,3.307761085E0
1.272541975E1,-5.485351941E-1,4.011941305E0,-3.863401562E-1,4.067655665E0
1.273541575E1,-1.302878492E0,4.484455386E0,-1.541646473E0,4.917774530E0
1.274541175E1,-2.039644036E0,4.566031646E0,-2.480227497E0,5.582143067E0
1.275540775E1,-2.371442096E0,4.259129715E0,-2.955901414E0,5.700989099E0
1.276540375E1,-2.370862198E0,3.617667646E0,-2.761126567E0,5.131503355E0
1.277539975E1,-2.211361119E0,2.775916222E0,-2.085990091E0,4.116695705E0
1.278539575E1,-1.963050482E0,1.859363999E0,-1.228242146E0,2.969744172E0
1.279539175E1,-1.620046818E0,9.138433541E-1,-3.993443638E-1,1.902403030E0
1.280538775E1,-1.318645217E0,4.035682462E-2,2.347189307E-1,1.339980170E0
1.281538375E1,-8.990208086E-1,-6.305130114E-1,4.662172151E-1,1.192955810E0
1.282537975E1,-2.635410261E-1,-9.871075775E-1,2.984880799E-1,1.064392022E0
1.283537575E1,3.771888252E-1,-1.093448038E0,-1.002288777E-1,1.161010702E0
1.284537175E1,8.910507613E-1,-1.093074255E0,-5.383356035E-1,1.509499257E0
1.285536775E1,1.263791610E0,-9.222244607E-1,-9.342973530E-1,1.822245519E0
1.286536375E1,1.526227512E0,-6.295613770E-1,-1.343788975E0,2.128728906E0
1.287536075E1,1.695482624E0,-3.253154342E-1,-1.756464990E0,2.462856212E0
1.288535675E1,1.817942616E0,-1.080670702E-1,-2.090155647E0,2.772245385E0
1.289535275E1,1.876386998E0,3.364776593E-2,-2.278022593E0,2.951499157E0
1.290534875E1,1.798107691E0,1.888002711E-1,-2.290516339E0,2.918099023E0
1.291534475E1,1.680068487E0,3.007825273E-1,-2.151093575E0,2.745961365E0
1.292534075E1,1.505200632E0,3.234694317E-1,-1.975306976E0,2.504415913E0
1.293533675E1,1.317362484E0,3.811108451E-1,-1.861234231E0,2.311900139E0
1.294533275E1,1.096874799E0,4.866813735E-1,-1.819025520E0,2.179184922E0
1.295532875E1,7.991810632E-1,6.040624005E-1,-1.762256073E0,2.027098474E0
1.296532475E1,4.449324730E-1,8.023739353E-1,-1.502471883E0,1.760451816E0
1.297532075E1,8.343245834E-3,9.882158442E-1,-1.181311224E0,1.540174137E0
1.298531675E1,-4.727791066E-1,1.165945911E0,-9.339441812E-1,1.566908320E0
1.299531275E1,-9.139377867E-1,1.362390868E0,-7.229246002E-1,1.792766335E0
1.300530875E1,-1.255279233E0,1.621037629E0,-7.100051773E-1,2.169699587E0
1.301530475E1,-1.433319348E0,1.881765852E0,-9.361433190E-1,2.543975509E0
1.302530075E1,-1.531490591E0,2.069928520E0,-1.195253325E0,2.838784603E0
1.303529675E1,-1.594682474E0,2.257019541E0,-1.191611094E0,3.009499360E0
1.304529275E1,-1.688357207E0,2.463380499E0,-9.197003639E-1,3.124842764E0
1.305528875E1,-1.801689695E0,2.615963299E0,-5.351903862E-1,3.221145524E0
1.306528475E1,-1.796975378E0,2.655447500E0,-2.467291117E-2,3.206420229E0
1.307528075E1,-1.660972504E0,2.632693060E0,6.968366629E-1,3.189903406E0
1.308527675E1,-1.400892883E0,2.536724171E0,1.566569061E0,3.294178048E0
1.309527275E1,-1.138003821E0,2.396983319E0,2.382499473E0,3.566074237E0
1.310526875E1,-9.341100959E-1,2.225338596E0,2.992713729E0,3.844610383E0
1.311526475E1,-7.164283437E-1,2.015048601E0,3.518952028E0,4.117853059E0
1.312526175E1,-6.707114495E-1,1.679502622E0,3.971827651E0,4.364172063E0
1.313525775E1,-7.737382199E-1,1.215258843E0,4.211617872E0,4.451207700E0
1.314525375E1,-1.048231666E0,7.979793142E-1,4.343857332E0,4.539235302E0
1.315524975E1,-1.303660265E0,5.143097598E-1,4.335663629E0,4.556536373E0
1.316524575E1,-1.387493111E0,2.689163715E-1,4.316310514E0,4.541804664E0
1.317524175E1,-1.342968611E0,8.436435834E-3,4.366126453E0,4.568007888E0
1.318523775E1,-1.114196006E0,-9.123205930E-2,4.367361969E0,4.508171092E0
1.319523375E1,-7.025778978E-1,1.371346025E-1,4.339960163E0,4.398599301E0
1.320522975E1,-2.038245821E-1,6.541234104E-1,4.148601260E0,4.204796583E0
1.321522575E1,2.253150000E-1,1.253886572E0,3.799301460E0,4.007204758E0
1.322522175E1,5.185866326E-1,1.763762316E0,3.164999015E0,3.660192394E0
1.323521775E1,5.675861536E-1,2.036352785E0,2.161349591E0,3.023296009E0
1.324521375E1,4.040670137E-1,2.025156829E0,1.054721929E0,2.318829161E0
1.325520975E1,1.940380973E-1,1.874411809E0,1.550020856E-1,1.890792442E0
1.326520575E1,6.240148544E-3,1.598096517E0,-4.278331679E-1,1.654385879E0
1.327520175E1,-1.350382295E-1,1.211023558E0,-6.244937414E-1,1.369235485E0
1.328519775E1,-2.129459462E-1,7.185016201E-1,-3.528145605E-1,8.282926224E-1
1.329519375E1,-1.753426485E-1,1.857015026E-1,1.746504843E-1,3.094073110E-1
1.330518975E1,2.953516334E-2,-2.746207689E-1,7.615957457E-1,8.101339225E-1
1.331518575E1,2.227417865E-1,-6.188475238E-1,1.236372700E0,1.400429796E0
1.332518175E1,3.518617567E-1,-7.516983099E-1,1.284736190E0,1.529511073E0
1.333517775E1,7.016888286E-1,-7.032661150E-1,1.126018783E0,1.501622037E0
1.334517375E1,8.585886280E-1,-6.373738419E-1,7.566378915E-1,1.309931580E0
1.335516975E1,9.044071175E-1,-5.644044643E-1,1.194182700E-1,1.072737320E0
1.336516675E1,9.863328946E-1,-5.223628376E-1,-5.406867689E-1,1.240184541E0
1.337516275E1,1.022336686E0,-5.123603347E-1,-1.226932370E0,1.677214492E0
1.338515875E1,1.034675189E0,-5.790742513E-1,-1.823457125E0,2.175057613E0
1.339515475E1,1.012380194E0,-7.329525020E-1,-2.303586620E0,2.620809864E0
1.340515075E1,9.381997848E-1,-9.618451940E-1,-2.555891052E0,2.887549841E0
1.341514675E1,8.320779370E-1,-1.237740510E0,-2.519008570E0,2.927415146E0
1.342514275E1,7.519172882E-1,-1.486692148E0,-2.441766266E0,2.955986409E0
1.343513875E1,7.633010861E-1,-1.700272371E0,-2.239884129E0,2.913869523E0
1.344513475E1,7.478914802E-1,-1.930744177E0,-1.953312090E0,2.846496594E0
1.345513075E1,7.407001358E-1,-2.107329212E0,-1.824269303E0,2.883995768E0
1.346512675E1,8.144281165E-1,-2.244152304E0,-1.831362560E0,3.008887095E0
1.347512275E1,1.003577357E0,-2.320595732E0,-1.962565309E0,3.200624104E0
1.348511875E1,1.219527749E0,-2.293635536E0,-2.140053447E0,3.365685763E0
1.349511475E1,1.373097120E0,-2.267948133E0,-2.228083863E0,3.463140502E0
1.350511075E1,1.431017299E0,-2.324398322E0,-2.345263819E0,3.598735952E0
1.351510675E1,1.417133524E0,-2.397499335E0,-2.473780941E0,3.725031897E0
1.352510275E1,1.404323737E0,-2.493625807E0,-2.634747187E0,3.890011254E0
1.353509875E1,1.393389297E0,-2.612747915E0,-2.747778543E0,4.039588138E0
1.354509475E1,1.350435359E0,-2.774424890E0,-2.705375120E0,4.103676847E0
1.355509075E1,1.270604493E0,-2.966604449E0,-2.452229859E0,4.053222054E0
1.356508675E1,1.187545818E0,-3.187426010E0,-2.118419334E0,4.007199785E0
1.357508275E1,1.131879740E0,-3.337297749E0,-1.607339357E0,3.873273527E0
1.358507875E1,1.010453390E0,-3.417224509E0,-1.005833359E0,3.702720641E0
1.359507442E1,9.387324661E-1,-3.431329747E0,-3.982462567E-1,3.579642798E0
1.360507042E1,9.511306098E-1,-3.369532864E0,3.395636004E-1,3.517627695E0
1.361506642E1,9.825611481E-1,-3.166828901E0,8.728325915E-1,3.428712357E0
1.362506242E1,9.342032129E-1,-2.876418457E0,1.315364490E0,3.297984616E0
1.363505842E1,7.447937715E-1,-2.685757712E0,1.757306405E0,3.294865407E0
1.364505442E1,4.386565103E-1,-2.640419571E0,2.115076481E0,3.411419582E0
1.365505142E1,3.698320046E-2,-2.654657833E0,2.422637100E0,3.594126666E0
1.366504742E1,-2.987617296E-1,-2.757052227E0,2.658544770E0,3.841673574E0
1.367504342E1,-5.845981890E-1,-3.004705199E0,2.845821147E0,4.179558156E0
1.368503942E1,-8.410026884E-1,-3.310642924E0,3.075641280E0,4.596434638E0
1.369503542E1,-9.171729049E-1,-3.498603133E0,3.209428498E0,4.835479429E0
1.370503142E1,-6.435486478E-1,-3.440982916E0,3.327789592E0,4.829979488E0
1.371502742E1,-1.861958116E-2,-3.018264307E0,3.470780911E0,4.599628926E0
1.372502342E1,5.617545792E-1,-2.203354526E0,3.494045228E0,4.168775772E0
1.373501942E1,8.739059941E-1,-1.045716705E0,3.188289644E0,3.467337014E0
1.374501542E1,7.820408276E-1,3.050311325E-1,2.397221593E0,2.539941577E0
1.375501142E1,2.498094249E-1,1.607220220E0,1.332274638E0,2.102502626E0
1.376500742E1,-4.389303061E-1,2.690765267E0,2.240530246E-1,2.735521393E0
1.377500342E1,-1.252408542E0,3.324234484E0,-8.369225013E-1,3.649589201E0
1.378499942E1,-2.028716760E0,3.547679106E0,-1.606594421E0,4.391225839E0
1.379499542E1,-2.566172211E0,3.463013763E0,-2.282952381E0,4.877455864E0
1.380499142E1,-2.613586698E0,3.178700795E0,-2.481591067E0,4.805545588E0
1.381498742E1,-2.411828522E0,2.565230225E0,-2.094288459E0,4.096750795E0
1.382498342E1,-2.201982331E0,1.720273064E0,-1.239636616E0,3.056920761E0
1.383497942E1,-1.909012415E0,8.536336975E-1,-3.425421721E-1,2.119045547E0
1.384497542E1,-1.548160272E0,1.283450679E-1,5.740346092E-1,1.656136593E0
1.385497142E1,-1.297564250E0,-3.939702610E-1,1.262125007E0,1.852523976E0
1.386496742E1,-9.539068678E-1,-6.667963001E-1,1.504571618E0,1.902180688E0
1.387496342E1,-5.247987145E-1,-6.384168389E-1,1.274714062E0,1.519172700E0
1.388495942E1,-1.701222543E-1,-3.597805313E-1,6.538795084E-1,7.654684994E-1
1.389495542E1,1.441280186E-2,1.948928140E-2,-1.884791493E-2,3.070512733E-2
1.390495142E1,-3.667578310E-2,3.798107897E-1,-7.589294153E-1,8.494558297E-1
1.391494742E1,1.194878519E-2,6.614284831E-1,-1.455328122E0,1.598627647E0
1.392494342E1,1.088277930E-1,8.411541313E-1,-1.999993921E0,2.172408674E0
1.393493942E1,1.910020767E-1,8.647404836E-1,-2.476123921E0,2.629723858E0
1.394493542E1,2.662516491E-1,7.591187920E-1,-2.758467838E0,2.873377124E0
1.395493142E1,3.496080936E-1,5.440903235E-1,-2.747717732E0,2.822802302E0
1.396492742E1,5.040307201E-1,3.126619865E-1,-2.509830780E0,2.578963945E0
1.397492442E1,6.756989783E-1,1.768306552E-1,-2.160169038E0,2.270279380E0
1.398492042E1,7.312337860E-1,1.875479437E-1,-1.833468143E0,1.982796639E0
1.399491642E1,6.100882486E-1,3.180520229E-1,-1.485689789E0,1.637265681E0
1.400491242E1,2.843541902E-1,4.922986474E-1,-1.176884882E0,1.307009292E0
1.401490842E1,-1.028528157E-1,7.817350182E-1,-9.578475988E-1,1.240629019E0
1.402490442E1,-5.101242498E-1,1.147295924E0,-7.679271108E-1,1.471810700E0
1.403490042E1,-9.056518435E-1,1.479412218E0,-7.476033586E-1,1.888855885E0
1.404489642E1,-1.203366337E0,1.759474845E0,-8.917126662E-1,2.310626268E0
1.405489242E1,-1.392266486E0,2.032664946E0,-9.829216290E-1,2.652596403E0
1.406488842E1,-1.434940050E0,2.268081742E0,-9.872702032E-1,2.859711557E0
1.407488442E1,-1.360037072E0,2.398420857E0,-8.439397448E-1,2.883462803E0
1.408488042E1,-1.257721615E0,2.354317940E0,-5.626278609E-1,2.727861201E0
1.409487642E1,-1.142105351E0,2.178851769E0,-2.262837374E-1,2.470425873E0
1.410487242E1,-9.683415967E-1,1.949743242E0,2.437452775E-1,2.190569770E0
1.411486842E1,-7.478784701E-1,1.759008529E0,7.512520212E-1,2.053731436E0
1.412486442E1,-5.448438469E-1,1.645220689E0,1.359150780E0,2.202475148E0
1.413486042E1,-3.600848423E-1,1.577645003E0,1.938101728E0,2.524849135E0
1.414485642E1,-2.280243073E-1,1.500443484E0,2.382001290E0,2.824403633E0
1.415485242E1,-7.330990478E-2,1.452779905E0,2.739940935E0,3.102131545E0
1.416484842E1,-6.733712018E-2,1.325500931E0,3.066954657E0,3.341810568E0
1.417484442E1,-2.317992698E-1,9.534548049E-1,3.291019961E0,3.434183942E0
1.418484042E1,-4.722224517E-1,4.110463965E-1,3.469728413E0,3.525757853E0
1.419483642E1,-5.889034939E-1,-6.894722410E-2,3.658316320E0,3.706054417E0
1.420483242E1,-5.862653764E-1,-4.753551706E-1,3.802546080E0,3.876728817E0
1.421482842E1,-4.258533007E-1,-8.317826526E-1,3.979005108E0,4.087260093E0
1.422482442E1,-1.831804025E-1,-1.080349544E0,4.149412268E0,4.291658464E0
1.423482042E1,1.909513521E-1,-1.050765630E0,4.189221282E0,4.323210124E0
1.424481642E1,6.757258755E-1,-5.925951335E-1,4.118300403E0,4.215231033E0
1.425481242E1,1.016490202E0,2.568212597E-1,3.848799310E0,3.989043196E0
1.426480842E1,1.122508408E0,1.283129083E0,3.567859894E0,3.954247032E0
1.427480442E1,9.111099270E-1,2.155826896E0,3.236164892E0,3.993804466E0
1.428480042E1,3.067013714E-1,2.613340238E0,2.299685358E0,3.494590917E0
1.429479642E1,-3.506917289E-1,2.766558046E0,9.051197469E-1,2.931905501E0
1.430479242E1,-8.743277977E-1,2.697072951E0,-4.971916705E-1,2.878515443E0
1.431478842E1,-1.052302132E0,2.389707190E0,-1.549748960E0,3.036406111E0
1.432478442E1,-9.941009206E-1,1.909703263E0,-1.965469036E0,2.915179536E0
1.433478142E1,-7.861441842E-1,1.258499295E0,-1.736190940E0,2.283900640E0
1.434477742E1,-5.606854159E-1,5.218947680E-1,-1.168535643E0,1.397217890E0
1.435477342E1,-2.941913997E-1,-1.326641138E-1,-5.492511857E-1,6.370441207E-1
1.436476942E1,1.022999614E-2,-6.824025918E-1,2.590316534E-4,6.824793163E-1
1.437476542E1,1.548205295E-1,-1.110111726E0,4.711715609E-1,1.215861867E0
1.438476142E1,2.511117460E-1,-1.390928935E0,7.829468536E-1,1.615780365E0
1.439475742E1,3.947933297E-1,-1.437834714E0,8.173290664E-1,1.700369737E0
1.440475342E1,6.106587906E-1,-1.320357720E0,4.627778828E-1,1.526568713E0
1.441474942E1,8.581649972E-1,-1.186605732E0,-7.713822305E-2,1.466434666E0
1.442474542E1,9.879579820E-1,-1.076220971E0,-6.613639444E-1,1.603656703E0
1.443474142E1,1.007136849E0,-9.617506883E-1,-1.226206146E0,1.855497381E0
1.444473742E1,1.151011830E0,-9.589606894E-1,-1.758058357E0,2.309805841E0
1.445473342E1,1.287123316E0,-9.686441170E-1,-2.208026744E0,2.733192265E0
1.446472942E1,1.351118752E0,-1.075281470E0,-2.521909373E0,3.056432399E0
1.447472542E1,1.375411740E0,-1.258468158E0,-2.606194063E0,3.204332545E0
1.448472142E1,1.349949017E0,-1.458028220E0,-2.637683074E0,3.302359859E0
1.449471742E1,1.357399977E0,-1.621093470E0,-2.626010277E0,3.371410493E0
1.450471342E1,1.402576735E0,-1.711982443E0,-2.566943459E0,3.389292567E0
1.451470942E1,1.415515892E0,-1.741342044E0,-2.441356961E0,3.316049030E0
1.452470542E1,1.340046172E0,-1.692396756E0,-2.247414758E0,3.116216234E0
1.453470142E1,1.261191937E0,-1.620594117E0,-2.124939564E0,2.955046285E0
1.454469742E1,1.219308039E0,-1.535306191E0,-2.127590691E0,2.893184983E0
1.455469342E1,1.210229214E0,-1.447534368E0,-2.199445955E0,2.897856623E0
1.456468942E1,1.193199052E0,-1.390819885E0,-2.247601284E0,2.899968183E0
1.457468542E1,1.174547604E0,-1.402251337E0,-2.250712003E0,2.900271609E0
1.458468142E1,1.139940858E0,-1.428845059E0,-2.151252619E0,2.822933083E0
1.459467754E1,1.171983892E0,-1.434929233E0,-2.004544224E0,2.729609073E0
1.460467354E1,1.235478660E0,-1.481466053E0,-1.844251578E0,2.668784942E0
1.461466954E1,1.262443095E0,-1.575345439E0,-1.603698295E0,2.578240494E0
1.462466554E1,1.251044241E0,-1.630345665E0,-1.390014723E0,2.480983597E0
1.463466154E1,1.281690668E0,-1.699575675E0,-1.079840398E0,2.386910917E0
1.464465754E1,1.336232910E0,-1.828397437E0,-5.922814304E-1,2.340801758E0
1.465465354E1,1.448560701E0,-1.957803190E0,4.460606933E-2,2.435838898E0
1.466464954E1,1.523948706E0,-2.049022386E0,7.494873315E-1,2.661323666E0
1.467464554E1,1.580669475E0,-2.034394114E0,1.457729573E0,2.960109949E0
1.468464154E1,1.733257976E0,-2.024337780E0,2.033299661E0,3.352079082E0
1.469463754E1,1.588071319E0,-2.005255538E0,2.429099443E0,3.527540842E0
1.470463354E1,1.325806009E0,-2.007301917E0,2.454038402E0,3.436470143E0
1.471462954E1,1.047585256E0,-1.969199852E0,2.460358073E0,3.320925289E0
1.472462554E1,6.386875650E-1,-1.972006223E0,2.431128427E0,3.194857709E0
1.473462154E1,3.872502753E-1,-2.075071439E0,2.249266571E0,3.084653038E0
1.474461754E1,2.697013602E-1,-2.381989011E0,2.176759343E0,3.238038250E0
1.475461354E1,1.782130466E-1,-2.776666127E0,2.302011965E0,3.611217767E0
1.476460954E1,1.867789252E-1,-3.000962104E0,2.722502784E0,4.056190494E0
1.477460554E1,4.256489405E-1,-2.961003694E0,3.348847169E0,4.490378298E0
1.478460154E1,9.180441400E-1,-2.635068491E0,3.952131890E0,4.837947651E0
1.479459854E1,1.412834359E0,-1.858749311E0,4.199582548E0,4.804949896E0
1.480459454E1,1.578745887E0,-6.708030315E-1,3.578680167E0,3.968547218E0
1.481459054E1,1.192855821E0,6.287824548E-1,2.387274309E0,2.741778804E0
1.482458654E1,3.176894590E-1,1.741914487E0,9.075241220E-1,1.989671506E0
1.483458254E1,-6.490328975E-1,2.656966022E0,-4.173982269E-1,2.766755035E0
1.484457854E1,-1.547465769E0,3.215618945E0,-1.394647472E0,3.831435381E0
1.485457454E1,-2.584671924E0,3.365835085E0,-1.963083372E0,4.675796307E0
1.486457054E1,-3.238130141E0,3.150299699E0,-2.276280123E0,5.058787029E0
1.487456654E1,-3.478968768E0,2.628403543E0,-2.164618185E0,4.867987341E0
1.488456254E1,-3.446586595E0,1.972374013E0,-1.866367502E0,4.387772334E0
1.489455854E1,-3.087187485E0,1.369627821E0,-1.388431297E0,3.651622708E0
1.490455454E1,-2.660558551E0,8.322837590E-1,-4.569663352E-1,2.824904651E0
1.491455054E1,-2.468945294E0,2.915104513E-1,4.568224937E-1,2.527717547E0
1.492454654E1,-2.191091161E0,-1.870041892E-2,1.081866458E0,2.443699084E0
1.493454254E1,-1.701674387E0,-1.339917972E-1,1.310983756E0,2.152284352E0
1.494453854E1,-1.047359407E0,-4.224971451E-2,9.111587512E-1,1.388868977E0
1.495453454E1,-2.928314835E-1,2.534873235E-1,2.079304969E-1,4.395920751E-1
1.496453054E1,2.515426858E-1,6.176263328E-1,-3.594803864E-1,7.576029025E-1
1.497452654E1,5.032039239E-1,9.257739399E-1,-8.932265103E-1,1.381349042E0
1.498452254E1,5.424486811E-1,1.118184757E0,-1.379257600E0,1.856593453E0
1.499451854E1,5.300196934E-1,1.244735388E0,-1.859012289E0,2.299176755E0
1.500451454E1,5.180454728E-1,1.331013978E0,-2.282141372E0,2.692236721E0
1.501451054E1,3.720018332E-1,1.311998833E0,-2.451700101E0,2.805451779E0
1.502450654E1,1.025778504E-1,1.192774910E0,-2.379555400E0,2.663741373E0
1.503450254E1,-1.484034296E-1,1.021381324E0,-2.191851591E0,2.422696181E0
1.504449854E1,-3.548578700E-1,9.078729084E-1,-2.058784166E0,2.277882694E0
1.505449454E1,-4.751023516E-1,9.130338071E-1,-1.960256828E0,2.214036994E0
1.506449054E1,-5.373775372E-1,1.056541071E0,-1.701597642E0,2.073761845E0
1.507448654E1,-6.767541084E-1,1.234486680E0,-1.368965331E0,1.963675015E0
1.508448254E1,-8.352199383E-1,1.434248471E0,-1.105666380E0,1.994281616E0
1.509447854E1,-9.557415779E-1,1.620244454E0,-8.501898336E-1,2.064329627E0
1.510447454E1,-1.022579638E0,1.779886597E0,-6.519733161E-1,2.153772184E0
1.511447054E1,-1.022661061E0,1.929722668E0,-4.657675642E-1,2.233070676E0
1.512446654E1,-9.614931916E-1,2.048969615E0,-3.035558617E-1,2.283613759E0
1.513446254E1,-9.013067776E-1,2.118896466E0,-1.182739699E-1,2.305659315E0
1.514445854E1,-8.489189413E-1,2.139293894E0,1.028063303E-1,2.303868675E0
1.515445454E1,-7.603434183E-1,2.101842477E0,3.161759073E-1,2.257394763E0
1.516445054E1,-6.555316392E-1,2.010968268E0,5.256810594E-1,2.179462245E0
1.517444654E1,-5.456187491E-1,1.917227460E0,8.313927895E-1,2.159785852E0
1.518444254E1,-4.911637759E-1,1.766841898E0,1.145901071E0,2.162420267E0
1.519443854E1,-4.733959879E-1,1.577174887E0,1.416682119E0,2.172227569E0
1.520443454E1,-3.815761372E-1,1.420158581E0,1.709824675E0,2.255205348E0
1.521443054E1,-3.264829405E-1,1.312388842E0,1.921717830E0,2.349884040E0
1.522442654E1,-2.777946375E-1,1.143122839E0,1.959728240E0,2.285702181E0
1.523442254E1,-2.882187612E-1,8.949755587E-1,2.017346118E0,2.225699141E0
1.524441854E1,-3.863938044E-1,4.868112548E-1,2.123630372E0,2.212711307E0
1.525441454E1,-3.966148835E-1,8.981681384E-2,2.283504358E0,2.319431521E0
1.526441054E1,-4.186604945E-1,-2.225342104E-1,2.451911185E0,2.497331885E0
1.527440654E1,-3.346586636E-1,-5.293462403E-1,2.748196619E0,2.818650124E0
1.528440254E1,-1.943795747E-1,-8.326428511E-1,3.197377387E0,3.309728039E0
1.529439854E1,-9.764280036E-2,-1.050065791E0,3.663491106E0,3.812261713E0
1.530439454E1,2.204635651E-1,-1.009071181E0,4.017188596E0,4.147846797E0
1.531439054E1,5.639766674E-1,-5.748548274E-1,4.191443224E0,4.268105441E0
1.532438654E1,8.447001752E-1,1.235142446E-1,3.962353408E0,4.053272589E0
1.533438254E1,9.987522344E-1,9.443521520E-1,3.396537645E0,3.664119947E0
1.534437854E1,8.652186397E-1,1.593903624E0,2.506922960E0,3.094154939E0
1.535437454E1,4.803068121E-1,1.969441050E0,1.289130957E0,2.402342879E0
1.536437054E1,1.114129932E-1,2.202770974E0,1.791557640E-1,2.212851014E0
1.537436654E1,-1.733914326E-1,2.227565508E0,-5.956020641E-1,2.312326642E0
1.538436254E1,-4.559345940E-1,1.984615451E0,-9.531306499E-1,2.248340028E0
1.539435954E1,-6.911672026E-1,1.537515123E0,-7.390336794E-1,1.840607409E0
1.540435554E1,-8.004697895E-1,1.022936538E0,-2.153979760E-1,1.316642447E0
1.541435054E1,-5.881094420E-1,5.557003722E-1,3.865161574E-1,8.966997041E-1
1.542434754E1,-3.985943122E-1,1.279973779E-1,1.081649526E0,1.159838977E0
1.543434354E1,-1.996601951E-1,-2.074602346E-1,1.561427604E0,1.587753162E0
1.544433954E1,3.721065715E-2,-4.336326557E-1,1.792343506E0,1.844428680E0
1.545433554E1,4.010830334E-1,-5.074780923E-1,1.620568097E0,1.744890418E0
1.546433154E1,8.365036945E-1,-4.536284521E-1,1.195707069E0,1.528146786E0
1.547432754E1,1.175033215E0,-3.757889652E-1,7.938600969E-1,1.467015425E0
1.548432354E1,1.526497946E0,-3.728818027E-1,3.651024842E-1,1.613237937E0
1.549431954E1,1.599263621E0,-3.972070603E-1,-3.039663363E-1,1.675653040E0
1.550431554E1,1.715972730E0,-3.536109148E-1,-9.744700634E-1,2.004793005E0
1.551431154E1,1.783313212E0,-4.057355167E-1,-1.541871591E0,2.392111060E0
1.552430754E1,1.740744751E0,-5.889891190E-1,-2.005839967E0,2.720384981E0
1.553430354E1,1.711384127E0,-8.262451932E-1,-2.264648842E0,2.956374659E0
1.554429954E1,1.661893294E0,-1.075846676E0,-2.215148653E0,2.970895310E0
1.555429554E1,1.553346313E0,-1.320727556E0,-1.985131468E0,2.845690249E0
1.556429154E1,1.391619784E0,-1.533318138E0,-1.757462525E0,2.715942684E0
1.557428754E1,1.249929177E0,-1.666434388E0,-1.723938099E0,2.703939549E0
1.558428354E1,1.177425749E0,-1.694833291E0,-1.813912130E0,2.747556823E0
1.559427950E1,1.146545434E0,-1.641056887E0,-1.942795288E0,2.789639344E0
1.560427550E1,1.141256627E0,-1.585025212E0,-2.158262846E0,2.910819494E0
1.561427150E1,1.152195452E0,-1.574196315E0,-2.401079001E0,3.093675608E0
1.562426750E1,1.167325269E0,-1.632307552E0,-2.602736020E0,3.286534804E0
1.563426350E1,1.252938593E0,-1.711188392E0,-2.687770323E0,3.423759650E0
1.564425950E1,1.389298878E0,-1.887013143E0,-2.649174607E0,3.536820051E0
1.565425550E1,1.475935025E0,-2.070609867E0,-2.585718284E0,3.626533946E0
1.566425150E1,1.542390239E0,-2.222284010E0,-2.478219563E0,3.668662709E0
1.567424750E1,1.541129287E0,-2.345224497E0,-2.269732996E0,3.609272128E0
1.568424350E1,1.475046687E0,-2.434611321E0,-2.103801879E0,3.539643677E0
1.569423950E1,1.318569349E0,-2.498427540E0,-1.900560265E0,3.404834008E0
1.570423550E1,1.169787824E0,-2.513618022E0,-1.618806331E0,3.210484862E0
1.571423150E1,1.101158761E0,-2.499820932E0,-1.297514695E0,3.024103122E0
1.572422750E1,1.101742898E0,-2.496958719E0,-9.003817481E-1,2.873904583E0
1.573422350E1,1.198200760E0,-2.452570167E0,-3.678927755E-1,2.754293118E0
1.574421950E1,1.252877051E0,-2.332189591E0,2.741028517E-1,2.661567502E0
1.575421550E1,1.206967052E0,-2.164772843E0,8.728635818E-1,2.627717976E0
1.576421150E1,1.131075894E0,-2.059094653E0,1.454991907E0,2.763368401E0
1.577420750E1,8.632764870E-1,-2.032883778E0,1.999288747E0,2.979096883E0
1.578420350E1,4.157446343E-1,-2.078663384E0,2.392804606E0,3.196748183E0
1.579419950E1,-8.158517674E-2,-2.257184140E0,2.507272038E0,3.374603600E0
1.580419550E1,-5.493799706E-1,-2.529976192E0,2.571354014E0,3.648898375E0
1.581419150E1,-7.197619875E-1,-2.678602766E0,2.781454412E0,3.928034972E0
1.582418750E1,-6.943254299E-1,-2.742946404E0,3.173887367E0,4.251988217E0
1.583418350E1,-5.817280832E-1,-2.872914221E0,3.585164729E0,4.630923214E0
1.584417950E1,-2.896798342E-1,-2.858593805E0,3.964257261E0,4.895999242E0
1.585417550E1,2.197048889E-1,-2.367165881E0,4.001770658E0,4.654665718E0
1.586417150E1,7.694539650E-1,-1.448665658E0,3.721573838E0,4.067038655E0
1.587416750E1,9.453292948E-1,-2.495992540E-1,3.121932517E0,3.271453791E0
1.588416350E1,5.883806066E-1,8.281361827E-1,2.118360862E0,2.349351829E0
1.589415950E1,-7.706630230E-4,1.663874769E0,8.408261025E-1,1.864260812E0
1.590415550E1,-5.765220147E-1,2.249201083E0,-3.632518405E-1,2.350156387E0
1.591415150E1,-1.092941085E0,2.543598743E0,-1.387825525E0,3.096849119E0
1.592414750E1,-1.776719014E0,2.502811198E0,-2.206937408E0,3.780392449E0
1.593414350E1,-2.204617817E0,2.212724836E0,-2.512108271E0,4.008388564E0
1.594413950E1,-2.395912547E0,1.717845593E0,-2.301561145E0,3.740130227E0
1.595413550E1,-2.377277325E0,1.224574992E0,-1.823811466E0,3.236868804E0
1.596413150E1,-2.121113438E0,8.026135249E-1,-1.164954223E0,2.549593895E0
1.597412750E1,-1.862106782E0,4.510979965E-1,-2.729836947E-1,1.935316813E0
1.598412350E1,-1.791719754E0,1.488306966E-1,4.529902285E-1,1.854079394E0
1.599411950E1,-1.717460554E0,-1.294255603E-2,8.631899482E-1,1.922221410E0
1.600411550E1,-1.530274955E0,3.296897728E-3,8.156544238E-1,1.734083171E0
1.601411150E1,-1.249235989E0,2.239527084E-1,2.681129640E-1,1.297162262E0
1.602410750E1,-9.619014734E-1,5.016022253E-1,-3.843982959E-1,1.150921929E0
1.603410350E1,-8.057773072E-1,7.420138590E-1,-9.034468585E-1,1.419886567E0
1.604409950E1,-6.598226184E-1,8.575584217E-1,-1.435890223E0,1.797930217E0
1.605409550E1,-3.537533310E-1,8.675834730E-1,-1.848069810E0,2.072004952E0
1.606409150E1,-3.941988140E-2,8.073088391E-1,-2.133312777E0,2.281298948E0
1.607408750E1,2.368575498E-1,6.739236175E-1,-2.208304487E0,2.320966016E0
1.608408350E1,4.065646519E-1,4.245122052E-1,-2.041734855E0,2.124661537E0
1.609407950E1,4.890340738E-1,1.496837506E-1,-1.724891195E0,1.799113444E0
1.610407550E1,6.095352481E-1,3.835689414E-2,-1.343513571E0,1.475816108E0
1.611407150E1,6.411803792E-1,4.056648385E-2,-9.407550180E-1,1.139200563E0
1.612406750E1,4.342266597E-1,1.324417003E-1,-6.533947742E-1,7.956244886E-1
1.613406350E1,1.280591391E-1,3.238880558E-1,-5.741556466E-1,6.715335600E-1
1.614405950E1,-1.413147770E-1,6.110250821E-1,-6.056253612E-1,8.718392027E-1
1.615405550E1,-4.152286175E-1,9.567620632E-1,-6.207222873E-1,1.213715209E0
1.616405150E1,-7.383861002E-1,1.275557815E0,-6.804246980E-1,1.623342091E0
1.617404750E1,-1.063257256E0,1.551179774E0,-7.512742406E-1,2.025114236E0
1.618404350E1,-1.273909047E0,1.829227888E0,-8.055054116E-1,2.370180983E0
1.619403950E1,-1.360862406E0,2.034946383E0,-8.589279127E-1,2.594361276E0
1.620403550E1,-1.366837530E0,2.128772852E0,-8.575497240E-1,2.671200146E0
1.621403150E1,-1.371280390E0,2.172742598E0,-7.932683587E-1,2.688957976E0
1.622402750E1,-1.304454609E0,2.190481150E0,-6.367658776E-1,2.627789999E0
1.623402350E1,-1.175975055E0,2.156298912E0,-3.602171355E-1,2.482397775E0
1.624401950E1,-1.010553670E0,2.053357365E0,-3.137791336E-2,2.288772545E0
1.625401550E1,-8.487316842E-1,1.926405981E0,2.170737880E-1,2.116248214E0
1.626401150E1,-6.663998589E-1,1.819423423E0,4.489176428E-1,1.988948821E0
1.627400750E1,-3.950745808E-1,1.660337934E0,7.601011974E-1,1.868303993E0
1.628400350E1,-1.034064008E-1,1.452824052E0,1.195626377E0,1.884386649E0
1.629399950E1,6.088164791E-2,1.185446667E0,1.701077240E0,2.074284010E0
1.630399550E1,-1.362225831E-2,6.923865663E-1,2.249361296E0,2.353552839E0
1.631399150E1,2.504347846E-2,1.006729737E-1,2.862347717E0,2.864227065E0
1.632398750E1,1.415369712E-1,-4.419501007E-1,3.643357388E0,3.672792625E0
1.633398350E1,1.128734815E-1,-7.856488520E-1,4.431007158E0,4.501534069E0
1.634397950E1,4.300992563E-2,-9.561570226E-1,5.180398595E0,5.268075142E0
1.635397550E1,-6.229608938E-2,-1.053771098E0,5.860751372E0,5.955058436E0
1.636397150E1,-1.375097014E-1,-8.185659718E-1,6.248357450E0,6.303247575E0
1.637396750E1,6.603552997E-3,-2.473932092E-1,6.163692107E0,6.168658476E0
1.638396350E1,3.627767542E-1,7.138191698E-1,5.443337358E0,5.501914791E0
1.639395950E1,7.104174060E-1,1.893126407E0,4.536385093E0,4.966629662E0
1.640395550E1,6.735043721E-1,2.831081778E0,3.439779559E0,4.505631541E0
1.641395150E1,4.846328746E-1,3.364788726E0,1.974932170E0,3.931542861E0
1.642394750E1,2.000225763E-1,3.619259843E0,5.985701108E-1,3.673872211E0
