"Time (s)","Acceleration x (m/s^2)","Acceleration y (m/s^2)","Acceleration z (m/s^2)","Absolute acceleration (m/s^2)"
-1.319791663E-3,3.532653809E-2,2.037263489E-1,9.795480194E0,9.797662202E0
8.603208335E-3,3.787124634E-2,2.318678284E-1,9.807006226E0,9.809819979E0
1.852620834E-2,3.338058472E-2,2.769241333E-1,9.817634125E0,9.821595647E0
2.844920834E-2,1.901046753E-2,3.459306335E-1,9.824220428E0,9.830327382E0
3.837220834E-2,1.856140137E-2,4.044589233E-1,9.833052063E0,9.841384274E0
4.829520834E-2,4.939727783E-3,4.354444885E-1,9.832303619E0,9.841942429E0
5.821820834E-2,-2.993774414E-4,4.052073669E-1,9.862391052E0,9.870711746E0
6.814120834E-2,-3.487747192E-2,3.532653809E-1,9.895921326E0,9.902286188E0
7.806420833E-2,-4.790039063E-2,3.028202820E-1,9.902956696E0,9.907701342E0
8.798720834E-2,-1.062789917E-1,1.529818726E-1,9.942624207E0,9.944368999E0
9.791020834E-2,-1.457968140E-1,4.760101318E-2,1.001252884E1,1.001370343E1
1.078332083E-1,-1.847158813E-1,5.643264771E-2,1.004321503E1,1.004507206E1
1.177562083E-1,-2.034269714E-1,-1.751358032E-2,1.004501129E1,1.004708620E1
1.276792083E-1,-2.396516418E-1,-1.526824951E-2,1.012823822E1,1.013108461E1
1.376022083E-1,-2.493814087E-1,9.280700684E-3,1.011267059E1,1.011574929E1
1.475252083E-1,-3.071612549E-1,6.092330933E-2,1.015862503E1,1.016345031E1
1.574482083E-1,-3.516188049E-1,-4.790039063E-2,1.028840515E1,1.029452334E1
1.673712083E-1,-4.227209473E-1,3.532653809E-2,1.030172745E1,1.031045728E1
1.772942083E-1,-4.210743713E-1,-8.307723999E-2,1.031983978E1,1.032876075E1
1.872172083E-1,-4.408332825E-1,-1.173559570E-1,1.039558228E1,1.040558683E1
1.971402083E-1,-4.475692749E-1,-4.096980286E-1,1.032941986E1,1.034722598E1
2.070632083E-1,-4.272116089E-1,-1.432521057E-1,1.033959869E1,1.034941216E1
2.169862083E-1,-3.644920349E-1,-2.445913696E-1,1.035142410E1,1.036072682E1
2.269092083E-1,-3.132984924E-1,2.724334717E-2,1.021056702E1,1.021540880E1
2.368322083E-1,-2.335144043E-1,8.008346558E-2,1.010967682E1,1.011269043E1
2.467552083E-1,-4.685256958E-2,1.883084106E-1,1.001432510E1,1.001620500E1
2.566782083E-1,4.924758911E-2,1.448986816E-1,9.827812958E0,9.829004450E0
2.666012083E-1,2.694396973E-2,1.574725342E-1,9.682764587E0,9.684082488E0
2.765270833E-1,1.993853760E-1,-2.993774414E-2,9.822573853E0,9.824642888E0
2.864500833E-1,1.528321838E-1,-4.068539429E-1,9.830207977E0,9.839810805E0
2.963730833E-1,-1.332229614E-2,-4.691244507E-1,9.756710815E0,9.767991665E0
3.062960833E-1,3.397933960E-2,-8.181985474E-1,9.716893616E0,9.751339651E0
3.162190833E-1,2.640509033E-1,-9.589059448E-1,9.692045288E0,9.742944388E0
3.261420833E-1,2.776725769E-1,-8.271798706E-1,9.453591156E0,9.493772398E0
3.360650833E-1,5.519023132E-1,-7.496411133E-1,9.075627136E0,9.123243167E0
3.459880833E-1,7.412585449E-1,-7.123686218E-1,8.924291840E0,8.983313315E0
3.559110833E-1,8.632548523E-1,-8.252339172E-1,8.916957092E0,8.996574000E0
3.658340833E-1,6.783892822E-1,-9.696835327E-1,8.993747406E0,9.071272820E0
3.757570833E-1,3.350033569E-1,-1.293310547E0,9.353000336E0,9.447936002E0
3.856800833E-1,6.750961304E-2,-1.495540009E0,9.709858246E0,9.824588776E0
3.956030833E-1,-2.026785278E-1,-1.585502930E0,9.875563660E0,1.000408195E1
4.055260833E-1,-2.360591125E-1,-1.573228455E0,9.947863312E0,1.007426206E1
4.154490833E-1,-1.213975525E-1,-1.421444092E0,9.815089417E0,9.918226703E0
4.253720833E-1,1.478924561E-1,-1.086440735E0,9.532177734E0,9.595031944E0
4.352950833E-1,3.637435913E-1,-7.460485840E-1,9.319170685E0,9.356059007E0
4.452170833E-1,4.171824646E-1,-4.682263184E-1,9.195378113E0,9.216737803E0
4.551400833E-1,4.649331665E-1,-4.052073669E-1,9.229507141E0,9.250089617E0
4.650630833E-1,1.757345581E-1,-3.959266663E-1,9.357640686E0,9.367661382E0
4.749860833E-1,-5.748046875E-2,-6.282435608E-1,9.744735718E0,9.765135339E0
4.849090833E-1,-4.258644104E-1,-9.657916260E-1,1.009755203E1,1.015256968E1
4.948320833E-1,-7.059320068E-1,-1.377884674E0,1.028256729E1,1.039846605E1
5.047550833E-1,-8.003855896E-1,-1.573976898E0,1.048539551E1,1.063303999E1
5.146780833E-1,-8.762777710E-1,-1.466201019E0,1.052955368E1,1.066719780E1
5.246010833E-1,-8.322692871E-1,-1.192719727E0,1.043554916E1,1.053641015E1
5.345240833E-1,-7.987390137E-1,-7.777825928E-1,1.044393173E1,1.050326805E1
5.444470833E-1,-8.053253174E-1,-4.044589233E-1,1.041144928E1,1.045037856E1
5.543700833E-1,-7.932005310E-1,-3.960763550E-1,1.025547363E1,1.029372542E1
5.642930833E-1,-8.858578491E-1,-4.745132446E-1,1.020742355E1,1.025677350E1
5.742160833E-1,-8.400531006E-1,-5.224136353E-1,1.039827667E1,1.044522680E1
5.841390833E-1,-9.090596008E-1,-7.038363647E-1,1.058329193E1,1.064555509E1
5.940620833E-1,-1.018931122E0,-1.306183777E0,1.049467621E1,1.062462072E1
6.039850833E-1,-1.112486572E0,-1.596729584E0,1.044857208E1,1.062825622E1
6.139080833E-1,-1.049766998E0,-1.579814758E0,1.041489212E1,1.058620816E1
6.238310833E-1,-9.172924805E-1,-1.173559570E0,1.010967682E1,1.021881759E1
6.337540833E-1,-6.224057007E-1,-6.662644958E-1,9.867929535E0,9.909961178E0
6.436770833E-1,-2.685415649E-1,-3.085084534E-1,9.692045288E0,9.700671827E0
6.536000833E-1,-2.957849121E-1,-3.888912964E-1,9.179511108E0,9.192505064E0
6.635230833E-1,-1.601669312E-1,-4.457730103E-1,9.085057526E0,9.097397280E0
6.734460833E-1,-1.456471252E-1,-5.504054260E-1,9.459129639E0,9.476248875E0
6.833690833E-1,-3.258723450E-1,-1.084943848E0,9.444160767E0,9.511859362E0
6.932920833E-1,-6.001020813E-1,-1.338516541E0,9.442963257E0,9.556218086E0
7.032150833E-1,-7.728428650E-1,-1.548080750E0,9.763596497E0,9.915727742E0
7.131380833E-1,-7.394622803E-1,-1.551822968E0,9.765991516E0,9.916125719E0
7.230610833E-1,-8.422984314E-1,-1.374441833E0,9.585167542E0,9.719773341E0
7.329840833E-1,-7.444020081E-1,-9.972262573E-1,9.555229797E0,9.635922947E0
7.429070833E-1,-6.357279968E-1,-6.081852722E-1,9.356143799E0,9.397418060E0
7.528300833E-1,-5.141807556E-1,-1.878593445E-1,9.337283020E0,9.353316373E0
7.627530833E-1,-5.489085388E-1,9.265731812E-2,9.417665863E0,9.434103893E0
7.726760833E-1,-7.891589355E-1,-6.990463257E-2,9.472152557E0,9.505226591E0
7.825990833E-1,-7.593708801E-1,-4.213737488E-1,9.526489563E0,9.565992022E0
7.925220833E-1,-9.300160217E-1,-6.057902527E-1,9.734706573E0,9.797776467E0
8.024450833E-1,-1.022074585E0,-8.382568359E-1,9.598040771E0,9.688637553E0
8.123680833E-1,-8.271798706E-1,-1.011895752E0,9.400152283E0,9.490575456E0
8.222910833E-1,-7.605683899E-1,-1.055754547E0,9.294621735E0,9.385258394E0
8.322140833E-1,-6.942562866E-1,-8.282276917E-1,9.058263245E0,9.122504366E0
8.421370833E-1,-5.911207581E-1,-5.358856201E-1,9.036857758E0,9.072011645E0
8.520600833E-1,-9.598040771E-1,-3.098556519E-2,8.886570282E0,8.938306067E0
8.619830833E-1,-9.967771912E-1,5.876779175E-1,9.240883484E0,9.313047711E0
8.719060833E-1,-1.209933929E0,1.090781708E0,1.003842499E1,1.016974538E1
8.818290833E-1,-1.528621216E0,9.321116638E-1,1.019664597E1,1.035263753E1
8.917520833E-1,-1.641785889E0,6.391708374E-1,1.009111542E1,1.024375959E1
9.016750833E-1,-1.590592346E0,2.308200073E-1,1.016431320E1,1.029060371E1
9.115980833E-1,-1.742975464E0,-4.278103638E-1,1.009380981E1,1.025212084E1
9.215210833E-1,-1.778152313E0,-4.927752686E-1,1.032013916E1,1.048379346E1
9.314440833E-1,-2.220482483E0,-3.632945251E-1,1.086994583E1,1.110037151E1
9.413670833E-1,-3.050656128E0,-6.908134460E-1,1.141166931E1,1.183257886E1
9.512900833E-1,-3.084186401E0,2.245330811E-3,1.178155014E1,1.217855223E1
9.612130833E-1,-3.617976379E0,-8.625064087E-1,1.168125870E1,1.225909765E1
9.711360833E-1,-3.136278076E0,-8.554710388E-1,1.132889145E1,1.178608724E1
9.810590833E-1,-2.182012482E0,-6.975494385E-1,1.039663010E1,1.064601668E1
9.909820833E-1,-1.537452850E0,-1.723964996E0,9.719288635E0,9.990014422E0
1.000905083E0,-1.407822418E0,-7.803273010E-1,9.593101044E0,9.727202182E0
1.010828083E0,-1.772763519E0,-1.262774048E0,9.252259827E0,9.504819866E0
1.020751083E0,-1.591490479E0,-9.527687073E-1,9.194030914E0,9.379275804E0
1.030674083E0,-1.602268066E0,-1.243613892E0,9.328002319E0,9.545965941E0
1.040597083E0,-1.681154022E0,-1.210532684E0,9.231153717E0,9.460754049E0
1.050520083E0,-1.692081299E0,-1.035396881E0,9.134005737E0,9.346937821E0
1.060443083E0,-1.835034027E0,-1.195264435E0,9.146429901E0,9.404955443E0
1.070366083E0,-1.725012817E0,-9.728269958E-1,9.300908661E0,9.509414467E0
1.080289083E0,-2.101180573E0,-1.082399139E0,9.837991791E0,1.011793606E1
1.090212083E0,-3.072211304E0,-9.547146606E-1,1.053958282E1,1.101965374E1
1.100135083E0,-3.833677826E0,-7.575746155E-1,1.124820923E1,1.190769566E1
1.110058083E0,-4.289479980E0,-4.433779907E-1,1.157842255E1,1.235540737E1
1.119981083E0,-3.769910431E0,-2.276765442E-1,1.116064133E1,1.178235868E1
1.129904083E0,-3.102298737E0,-2.962339783E-1,1.042507095E1,1.088090605E1
1.139827083E0,-2.480342102E0,-6.253994751E-1,9.831555176E0,1.015887290E1
1.149749083E0,-2.251018982E0,-3.980223083E-1,9.464668121E0,9.736809070E0
1.159672083E0,-2.557581482E0,-4.971162415E-1,9.481582947E0,9.833044430E0
1.169595083E0,-2.521955566E0,-1.356179810E-1,9.844129028E0,1.016294881E1
1.179518083E0,-2.894381104E0,2.624043274E-1,1.008243347E1,1.049293871E1
1.189441083E0,-3.080893250E0,7.632627869E-1,1.022508682E1,1.070639406E1
1.199364083E0,-3.284619598E0,7.406597900E-1,1.002779709E1,1.057799685E1
1.209287083E0,-2.846929779E0,7.984396362E-1,9.982740784E0,1.041141818E1
1.219210083E0,-2.364333344E0,3.365002441E-1,9.739795990E0,1.002830646E1
1.229133083E0,-2.231858826E0,-3.061134338E-1,9.117090912E0,9.391285639E0
1.239056083E0,-2.096540222E0,-6.315367126E-1,8.934770050E0,9.199154057E0
1.248979083E0,-2.096689911E0,-5.763015747E-1,8.833730164E0,9.097418353E0
1.258902083E0,-2.023492126E0,-5.634283447E-1,8.812624054E0,9.059487546E0
1.268825083E0,-2.227667542E0,-6.173162842E-1,8.936117249E0,9.230264002E0
1.278744583E0,-2.412233734E0,-2.890489197E-1,9.122779083E0,9.440737210E0
1.288667583E0,-2.753673706E0,2.481838989E-1,9.508227539E0,9.902055598E0
1.298590583E0,-2.934347992E0,7.671546936E-1,9.776170349E0,1.023584052E1
1.308513583E0,-3.096610565E0,4.825964355E-1,9.667795715E0,1.016307878E1
1.318436583E0,-3.133433990E0,3.324586487E-1,9.725725250E0,1.022343724E1
1.328359583E0,-2.942281494E0,-1.344204712E-1,9.689799957E0,1.012755215E1
1.338282583E0,-2.677033081E0,-5.697152710E-1,9.448352051E0,9.836790029E0
1.348205583E0,-2.728975067E0,-8.656498718E-1,9.240284729E0,9.673650629E0
1.358128583E0,-2.718646545E0,-6.629713440E-1,9.207053833E0,9.622910699E0
1.368051583E0,-3.029699707E0,-4.855902100E-1,9.585766296E0,1.006487922E1
1.377974583E0,-3.385509796E0,-4.839436340E-1,1.009755203E1,1.066097721E1
1.387897583E0,-4.308789825E0,-5.758525085E-1,1.046144531E1,1.132868544E1
1.397820583E0,-4.874912567E0,-5.343887329E-2,1.134595596E1,1.234902202E1
1.407743583E0,-5.031636658E0,-4.842430115E-1,1.159503799E1,1.264898276E1
1.417666583E0,-5.088668060E0,-3.860472107E-1,1.126287872E1,1.236511271E1
1.427589583E0,-4.729864197E0,-8.955876160E-1,1.116393448E1,1.215759538E1
1.437512583E0,-4.278103638E0,-6.824308777E-1,1.019350250E1,1.107589165E1
1.447435583E0,-3.036435699E0,-9.288185120E-1,9.368418274E0,9.891911167E0
1.457358583E0,-3.119812317E0,-7.134164429E-1,9.094038849E0,9.640733089E0
1.467281583E0,-3.294948120E0,-1.040336609E0,8.856931915E0,9.507061919E0
1.477204583E0,-3.454815674E0,-6.610253906E-1,9.015302582E0,9.677209647E0
1.487127583E0,-3.345991974E0,-6.979985046E-1,9.135652313E0,9.754127710E0
1.497050583E0,-3.683540039E0,-7.911048889E-1,8.955876160E0,9.716070808E0
1.506973583E0,-3.562142487E0,-6.363267517E-1,9.146429901E0,9.836206116E0
1.516896583E0,-3.749852142E0,-6.165678406E-1,9.208401031E0,9.961736623E0
1.526819583E0,-3.884721680E0,-4.623884583E-1,9.658964081E0,1.042115410E1
1.536742583E0,-4.902754669E0,-9.099577332E-1,1.043914169E1,1.156895439E1
1.546665583E0,-5.785618744E0,-6.960525513E-2,1.127979355E1,1.267722255E1
1.556588583E0,-6.347550201E0,-4.311035156E-2,1.173918823E1,1.334547835E1
1.566511583E0,-5.756878510E0,3.577560425E-2,1.102307739E1,1.243588217E1
1.576434583E0,-4.437971191E0,1.874102783E-1,1.018137772E1,1.110815750E1
1.586357583E0,-4.114793243E0,4.418811035E-1,1.004635849E1,1.086536245E1
1.596280583E0,-4.745282135E0,4.676275635E-1,9.807455292E0,1.090516196E1
1.606203583E0,-4.570894775E0,5.053491211E-1,9.899813232E0,1.091580317E1
1.616125583E0,-4.567901001E0,3.665876770E-1,1.001357666E1,1.101234869E1
1.626049583E0,-4.542603607E0,8.650511169E-1,1.007420059E1,1.108481297E1
1.635971583E0,-4.320465546E0,7.777825928E-1,1.004635849E1,1.096360740E1
1.645894583E0,-4.727918243E0,2.550695801E-1,9.718540192E0,1.081056404E1
1.655817583E0,-4.259841614E0,7.379653931E-1,9.994416504E0,1.088940792E1
1.665740583E0,-4.426445160E0,4.975653076E-1,9.927505646E0,1.088100898E1
1.675663583E0,-4.165238342E0,8.527766418E-1,9.689201202E0,1.058097625E1
1.685586583E0,-4.442461853E0,1.082249451E-1,9.832153931E0,1.078973729E1
1.695509583E0,-4.124073944E0,1.024170227E0,9.798923035E0,1.068062747E1
1.705432583E0,-4.201612701E0,3.619473267E-1,9.737550659E0,1.061152430E1
1.715355583E0,-4.265978851E0,7.512876892E-1,9.795031128E0,1.071007206E1
1.725278583E0,-4.352798309E0,5.830375671E-1,9.702074432E0,1.064974339E1
1.735201583E0,-4.008214874E0,6.048921204E-1,9.992769928E0,1.078365113E1
1.745124583E0,-4.068090363E0,7.053332520E-1,9.856403503E0,1.068623153E1
1.755047583E0,-4.494852905E0,3.625460815E-1,9.547895050E0,1.055923492E1
1.764970583E0,-3.915707245E0,8.945397949E-1,9.917476501E0,1.069996752E1
1.774893583E0,-4.132306824E0,4.628375244E-1,9.836195526E0,1.067899437E1
1.784816583E0,-4.070186005E0,7.494914246E-1,9.742490387E0,1.058509662E1
1.794739583E0,-3.993395691E0,5.236111450E-1,1.003243744E1,1.081069742E1
1.804662583E0,-4.114344177E0,8.189469910E-1,9.764644318E0,1.062764230E1
1.814585583E0,-3.792064362E0,8.276289368E-1,9.617350616E0,1.037102476E1
1.824508583E0,-4.149670715E0,7.828720093E-1,9.621990967E0,1.050787161E1
1.834431583E0,-3.762126617E0,1.005010071E0,9.419312439E0,1.019250159E1
1.844354583E0,-3.536545715E0,9.906399536E-1,9.376202087E0,1.006984055E1
1.854277583E0,-3.116968231E0,1.448088684E0,9.258397064E0,9.875746452E0
1.864200583E0,-3.210074615E0,1.668280792E0,9.070088654E0,9.764949975E0
1.874123583E0,-3.195554810E0,7.867639160E-1,9.445957031E0,1.000283321E1
1.884046583E0,-3.605252838E0,8.307723999E-1,9.694140930E0,1.037614568E1
1.893969583E0,-4.139192505E0,5.918692017E-1,9.635762329E0,1.050386307E1
1.903892583E0,-3.197201385E0,4.246669006E-1,9.848919067E0,1.036357301E1
1.913815583E0,-3.853287048E0,4.963677979E-1,9.914033661E0,1.064811089E1
1.923738583E0,-3.473526764E0,4.279600525E-1,9.860894165E0,1.046354489E1
1.933661583E0,-3.822750549E0,2.296224976E-1,9.666897583E0,1.039783906E1
1.943584583E0,-3.632945251E0,5.614823914E-1,9.994416504E0,1.064903352E1
1.953507583E0,-3.606001282E0,1.187031555E-1,9.951006775E0,1.058488883E1
1.963430583E0,-3.875740356E0,5.960604858E-1,9.793983307E0,1.054982277E1
1.973353583E0,-3.423830109E0,-6.870712280E-2,9.932894440E0,1.050665148E1
1.983276583E0,-3.945345612E0,3.775149536E-1,9.874366150E0,1.064008348E1
1.993199583E0,-3.362757111E0,3.257226562E-1,9.898615723E0,1.045929366E1
2.003121583E0,-3.869303741E0,5.448669434E-2,9.793384552E0,1.053018809E1
2.013044583E0,-3.518732758E0,2.739303589E-1,1.007180557E1,1.067229055E1
2.022967583E0,-3.768712921E0,5.718109131E-2,9.778864746E0,1.048010794E1
2.032890583E0,-3.572471008E0,2.107617188E-1,9.851463776E0,1.048133141E1
2.042813583E0,-3.512296143E0,1.405577087E-1,1.006012985E1,1.065655635E1
2.052736583E0,-3.739673309E0,-2.956352234E-1,9.649533691E0,1.035306994E1
2.062659583E0,-3.406615906E0,1.892065430E-1,9.739795990E0,1.032009966E1
2.072582583E0,-3.514541473E0,1.718426514E-1,9.985285492E0,1.058713644E1
2.082505583E0,-3.626957703E0,-4.448748779E-1,9.501790924E0,1.018021447E1
2.092428583E0,-3.684288483E0,-2.101629639E-1,9.159602509E0,9.875042694E0
2.102351583E0,-2.476899261E0,-5.542973328E-1,9.284143524E0,9.624842672E0
2.112274583E0,-3.053200836E0,-1.415905609E0,8.641679535E0,9.273912293E0
2.122197583E0,-3.131188660E0,-1.268162842E0,8.954528961E0,9.570588714E0
2.132120583E0,-3.662134552E0,-5.081932068E-1,9.477990417E0,1.017358305E1
2.142043583E0,-3.589086456E0,9.684860229E-2,9.620194702E0,1.026835271E1
2.151966583E0,-4.014052734E0,-5.382806396E-1,9.651030579E0,1.046636310E1
2.161889583E0,-3.826343079E0,-3.302133179E-1,9.711205444E0,1.044305766E1
2.171812583E0,-3.659140778E0,6.436614990E-3,9.773775330E0,1.043628463E1
2.181735583E0,-4.029171295E0,-3.056643677E-1,9.876162415E0,1.067081234E1
2.191658583E0,-4.041745148E0,-2.586621094E-1,9.954748993E0,1.074707576E1
2.201581583E0,-3.873644714E0,-1.416055298E-1,9.985435181E0,1.071140006E1
2.211504583E0,-4.095333710E0,-1.154100037E-1,9.940977631E0,1.075212137E1
2.221427583E0,-4.206552429E0,-2.420466614E-1,1.001267853E1,1.086312115E1
2.231350583E0,-4.155358887E0,-1.107696533E-1,1.006581802E1,1.089036133E1
2.241273583E0,-4.063599701E0,-3.248245239E-2,1.013168106E1,1.091626579E1
2.251196583E0,-4.191733246E0,-1.505868530E-1,1.010428802E1,1.094028978E1
2.261119583E0,-4.136498108E0,-8.786727905E-2,9.994266815E0,1.081682515E1
2.271042583E0,-4.433330841E0,2.634521484E-2,1.005758514E1,1.099136640E1
2.280965333E0,-4.120631104E0,-7.035369873E-2,1.023047562E1,1.102937812E1
2.290888333E0,-4.180207214E0,-1.537303162E-1,1.004037094E1,1.087689358E1
2.300811333E0,-4.420457611E0,1.450483704E-1,1.012793884E1,1.105154422E1
2.310734333E0,-4.167633362E0,-1.652563477E-1,1.035516632E1,1.116359920E1
2.320657333E0,-4.422852631E0,1.017883301E-1,9.961484985E0,1.089968666E1
2.330580333E0,-4.253704376E0,8.232879639E-3,1.015787659E1,1.101256217E1
2.340502333E0,-4.300407257E0,6.975494385E-2,1.035816010E1,1.121560738E1
2.350425333E0,-4.243675232E0,6.945556641E-2,9.963580627E0,1.082989116E1
2.360348333E0,-4.335434418E0,1.922003174E-1,1.018077896E1,1.106712216E1
2.370271333E0,-4.256548462E0,-3.996688843E-2,1.032013916E1,1.116356012E1
2.380194333E0,-4.432432709E0,3.411405945E-1,9.890981598E0,1.084409303E1
2.390117333E0,-4.117487640E0,1.781295776E-2,1.028436356E1,1.107800323E1
2.400040333E0,-4.345912628E0,2.490820312E-1,1.026205994E1,1.114714639E1
2.409963333E0,-4.216880951E0,1.625619507E-1,9.962682495E0,1.081959120E1
2.419886333E0,-4.205504608E0,5.403762817E-2,1.016850449E1,1.100398439E1
2.429809333E0,-4.316723328E0,5.144801331E-1,9.997410278E0,1.090169722E1
2.439732333E0,-4.137994995E0,1.197509766E-1,9.945468292E0,1.077263582E1
2.449655333E0,-4.137994995E0,2.550695801E-1,1.025487488E1,1.106121701E1
2.459578333E0,-4.147275696E0,2.284249878E-1,9.918973389E0,1.075351602E1
2.469501333E0,-4.197571106E0,3.975732422E-1,9.848919067E0,1.071349030E1
2.479424333E0,-3.944746857E0,3.221301270E-1,1.018062927E1,1.092291206E1
2.489347333E0,-4.169130249E0,3.345542908E-1,9.875863037E0,1.072502887E1
2.499270333E0,-4.076772308E0,4.302053833E-1,9.972112885E0,1.078184513E1
2.509193333E0,-4.053271179E0,3.444337463E-1,1.007075775E1,1.086129843E1
2.519116333E0,-3.983366547E0,2.718347168E-1,9.886640625E0,1.066239964E1
2.529039333E0,-4.068689117E0,5.959107971E-1,9.990374908E0,1.080356106E1
2.538962333E0,-4.044439545E0,2.918930054E-1,1.000459534E1,1.079512022E1
2.548885333E0,-3.918850708E0,5.263055420E-1,9.828711090E0,1.059424136E1
2.558808333E0,-4.101620636E0,4.266128540E-1,1.000399658E1,1.082059324E1
2.568731333E0,-3.850442963E0,4.201762390E-1,1.000878662E1,1.073211390E1
2.578654333E0,-4.087699585E0,4.999603271E-1,9.754764862E0,1.058842225E1
2.588577333E0,-3.823498993E0,6.388714600E-1,1.016236725E1,1.087662675E1
2.598500333E0,-4.054917755E0,3.918850708E-1,9.868228912E0,1.067604205E1
2.608423333E0,-3.717369690E0,9.304650879E-1,9.770781555E0,1.049536921E1
2.618346333E0,-3.718118134E0,3.758683777E-1,1.014440460E1,1.081085678E1
2.628269333E0,-3.879781952E0,9.990225220E-1,9.745633850E0,1.053698881E1
2.638192333E0,-3.894900513E0,7.972421265E-1,9.487121429E0,1.028646285E1
2.648114333E0,-3.311264191E0,8.530760193E-1,9.258546753E0,9.869797222E0
2.658037333E0,-2.151026917E0,2.555785217E0,8.304131470E0,8.950840985E0
2.667960333E0,-1.391057281E0,2.783312073E0,7.550748138E0,8.166741327E0
2.677883333E0,-1.608854370E0,2.490071869E0,8.032296753E0,8.561930940E0
2.687806333E0,-2.878963165E0,1.012344818E0,9.423803101E0,9.905621425E0
2.697729333E0,-3.844006348E0,-3.876937866E-2,9.801617432E0,1.052851329E1
2.707652333E0,-3.333118744E0,8.637039185E-1,9.940977631E0,1.052039454E1
2.717575333E0,-3.593726807E0,2.610571289E-1,1.025652145E1,1.087102826E1
2.727498333E0,-3.466940460E0,7.580236816E-1,1.017928207E1,1.078016974E1
2.737421333E0,-3.722309418E0,-3.652404785E-2,1.008872040E1,1.075356688E1
2.747344333E0,-3.550915833E0,5.715115356E-1,1.025098297E1,1.086362189E1
2.757267333E0,-3.709585876E0,3.676354980E-1,1.013677048E1,1.080047679E1
2.767190333E0,-3.659889221E0,1.457968140E-1,1.014545242E1,1.078639192E1
2.777113333E0,-3.616928558E0,4.448748779E-1,1.015323624E1,1.078741359E1
2.787036333E0,-3.656147003E0,1.868115234E-1,1.014605118E1,1.078631837E1
2.796959333E0,-3.675606537E0,3.601510620E-1,1.019455032E1,1.084290775E1
2.806882333E0,-3.645519104E0,4.340972900E-3,1.013677048E1,1.077236947E1
2.816805333E0,-3.712579651E0,4.387376404E-1,1.012240036E1,1.079067780E1
2.826728333E0,-3.539988556E0,2.333647156E-1,1.017583923E1,1.077653387E1
2.836651333E0,-3.856430511E0,9.580078125E-3,9.871821442E0,1.059834924E1
2.846574333E0,-3.576362915E0,2.899470520E-1,1.012808853E1,1.074488801E1
2.856497333E0,-3.531605988E0,1.839674377E-1,1.014470398E1,1.074342142E1
2.866420333E0,-3.759432220E0,-2.058219910E-1,9.820328522E0,1.051734499E1
2.876343333E0,-3.459605713E0,2.580633545E-1,9.952204285E0,1.053953692E1
2.886266333E0,-3.747008057E0,-4.161346436E-2,9.831704865E0,1.052160737E1
2.896189333E0,-3.402723999E0,-4.460723877E-2,9.882748718E0,1.045223625E1
2.906112333E0,-3.665577393E0,-1.481918335E-2,9.880952454E0,1.053897047E1
2.916035333E0,-3.733835449E0,4.161346436E-2,9.674082642E0,1.036972197E1
2.925957333E0,-3.565735016E0,-7.050338745E-2,9.684710541E0,1.032051623E1
2.935880333E0,-3.637884979E0,-1.016386414E-1,9.773625641E0,1.042920398E1
2.945803333E0,-3.295097809E0,1.793270874E-1,9.914183350E0,1.044896451E1
2.955726333E0,-3.755390625E0,-2.412982178E-1,9.676926727E0,1.038287506E1
2.965649333E0,-3.760779419E0,-1.113684082E-1,9.428443451E0,1.015142407E1
2.975572333E0,-3.661535797E0,8.143066406E-2,9.738748169E0,1.040464758E1
2.985495333E0,-3.515888672E0,5.733078003E-2,9.807754669E0,1.041906002E1
2.995418333E0,-3.744762726E0,-1.047821045E-3,9.507628784E0,1.021852504E1
3.005341333E0,-3.897894287E0,-1.986369324E-1,9.743538208E0,1.049616946E1
3.015264333E0,-3.445385284E0,5.923182678E-1,9.794132996E0,1.039935391E1
3.025187333E0,-4.144730988E0,-4.496649170E-1,9.430838470E0,1.031124181E1
3.035110333E0,-3.655847626E0,3.251239014E-1,9.776020660E0,1.044229416E1
3.045033333E0,-3.723057861E0,2.233355713E-1,9.882449341E0,1.056285206E1
3.054956333E0,-3.861220551E0,2.664459229E-1,9.800270233E0,1.053685504E1
3.064879333E0,-3.925437012E0,2.128573608E-1,9.706864471E0,1.047270652E1
3.074802333E0,-4.105662231E0,1.336720276E-1,9.688452759E0,1.052332872E1
3.084725333E0,-3.779191132E0,5.583389282E-1,9.930050354E0,1.063954548E1
3.094648333E0,-3.862418060E0,3.712280273E-1,9.830058289E0,1.056816585E1
3.104571333E0,-4.008214874E0,1.517843628E-1,9.688752136E0,1.048621681E1
3.114494333E0,-3.918251953E0,4.279600525E-1,9.842033386E0,1.060195592E1
3.124417333E0,-4.020639038E0,4.233197021E-1,9.720037079E0,1.052729114E1
3.134340333E0,-3.954776001E0,3.908372498E-1,9.710457001E0,1.049218672E1
3.144263333E0,-4.022285614E0,5.638774109E-1,9.881700897E0,1.068385473E1
3.154186333E0,-4.046984253E0,1.889071655E-1,9.726623383E0,1.053664889E1
3.164109333E0,-4.057312775E0,8.451425171E-1,9.717492371E0,1.056436041E1
3.174032333E0,-3.980821838E0,1.784289551E-1,9.909842377E0,1.068099973E1
3.183954333E0,-4.071682892E0,9.041198730E-1,9.591454468E0,1.045906464E1
3.193877333E0,-3.977678375E0,6.988966370E-1,9.719438324E0,1.052510632E1
3.203800333E0,-3.869303741E0,8.144563293E-1,9.931846619E0,1.069001533E1
3.213723333E0,-4.135450287E0,9.734257507E-1,9.539512482E0,1.044278723E1
3.223646333E0,-3.793261871E0,3.024909668E0,9.943672028E0,1.106415507E1
3.233569333E0,-4.143982544E0,3.732937317E0,1.007360184E1,1.151455020E1
3.243492333E0,-3.931574249E0,3.182082825E0,1.002465363E1,1.122838401E1
3.253415333E0,-3.848497009E0,1.330882416E0,1.049632278E1,1.125855094E1
3.263338333E0,-3.721560974E0,7.244934082E-2,1.024304947E1,1.089840940E1
3.273261333E0,-3.872297516E0,1.228794708E0,9.894873505E0,1.069640810E1
3.283184333E0,-4.005969543E0,5.328918457E-1,1.026819717E1,1.103483751E1
3.293107333E0,-3.792812805E0,7.970924377E-1,1.001836670E1,1.074190191E1
3.303030333E0,-3.841311951E0,2.191442871E-1,9.899364166E0,1.062078682E1
3.312953333E0,-3.853736115E0,7.129673767E-1,1.021086639E1,1.093715672E1
3.322876333E0,-3.768862610E0,2.906954956E-1,9.981543274E0,1.067333291E1
3.332799333E0,-4.013154602E0,5.337899780E-1,9.881700897E0,1.067887420E1
3.342722333E0,-3.713777161E0,3.520678711E-1,1.010548553E1,1.077204393E1
3.352645333E0,-3.972888336E0,4.309538269E-1,9.945767670E0,1.071857535E1
3.362568333E0,-3.675307159E0,3.820056152E-1,1.010144394E1,1.075606716E1
3.372491333E0,-4.169729004E0,2.799179077E-1,9.818981323E0,1.067133488E1
3.382414333E0,-3.816613312E0,4.739144897E-1,9.834698639E0,1.055994458E1
3.392337333E0,-3.778442688E0,1.836680603E-1,1.024933640E1,1.092516634E1
3.402260333E0,-3.951033783E0,4.602928162E-1,9.920320587E0,1.068809141E1
3.412183333E0,-3.977977753E0,1.166075134E-1,9.638756104E0,1.042801628E1
3.422105333E0,-3.920497284E0,2.525248718E-1,1.020966888E1,1.093944270E1
3.432028333E0,-3.714076538E0,4.044589233E-1,1.000654129E1,1.068123683E1
3.441951333E0,-4.214036865E0,1.910028076E-1,9.555529175E0,1.044522506E1
3.451874333E0,-3.736679535E0,2.630030823E-1,1.021311172E1,1.087840042E1
3.461797333E0,-3.881428528E0,1.520837402E-1,9.962532806E0,1.069302000E1
3.471720333E0,-4.180656281E0,2.480342102E-1,9.513167267E0,1.039421759E1
3.481643333E0,-3.809278564E0,1.179547119E-1,1.005084915E1,1.074914346E1
3.491566333E0,-3.891158295E0,2.068698120E-1,9.944570160E0,1.068074827E1
3.501489333E0,-3.956871643E0,2.897973633E-1,9.761949921E0,1.053738497E1
3.511412333E0,-3.880530396E0,4.281097412E-2,9.921817474E0,1.065376980E1
3.521335333E0,-4.141437836E0,3.393443298E-1,9.723928986E0,1.057456651E1
3.531258333E0,-3.711681519E0,1.326242065E-1,9.977202301E0,1.064606663E1
3.541181333E0,-3.916755066E0,1.658551025E-1,9.820478210E0,1.057403757E1
3.551104333E0,-4.161496124E0,1.308279419E-1,9.619595947E0,1.048197463E1
3.561027333E0,-3.818559265E0,1.618135071E-1,9.892927551E0,1.060554544E1
3.570950333E0,-3.978875885E0,1.374142456E-1,9.823322296E0,1.059943380E1
3.580873333E0,-4.013453979E0,7.679031372E-2,9.636660461E0,1.043929760E1
3.590796333E0,-3.948339386E0,1.995350647E-1,9.798923035E0,1.056636602E1
3.600719333E0,-3.843856659E0,2.260299683E-1,9.844278717E0,1.057053201E1
3.610642333E0,-3.937262421E0,1.932481384E-1,9.599537659E0,1.037740350E1
3.620565333E0,-3.953129425E0,9.205856323E-2,9.724677429E0,1.049785969E1
3.630488333E0,-3.955823822E0,8.322692871E-2,9.620194702E0,1.040209666E1
3.640411333E0,-3.989054718E0,3.318598938E-1,9.684710541E0,1.047932759E1
3.650333333E0,-3.766168213E0,2.333647156E-1,9.874066772E0,1.057050977E1
3.660256333E0,-4.153712311E0,1.848655701E-1,9.543853455E0,1.041021806E1
3.670179333E0,-3.856280823E0,2.133064270E-1,9.692644043E0,1.043377928E1
3.680102333E0,-3.948189697E0,2.576142883E-1,9.768985291E0,1.053981217E1
3.690025333E0,-4.041745148E0,2.558180237E-1,9.607022095E0,1.042573835E1
3.699948333E0,-3.879632263E0,3.959266663E-1,9.768536224E0,1.051820348E1
3.709871333E0,-4.065246277E0,2.454895020E-1,9.821526031E0,1.063244403E1
3.719794333E0,-3.988605652E0,1.559756470E-1,9.618697815E0,1.041406026E1
3.729717333E0,-3.886967010E0,4.403842163E-1,9.797875214E0,1.054991988E1
3.739640333E0,-4.095782776E0,1.157093811E-1,9.673184509E0,1.050520460E1
3.749563333E0,-3.968098297E0,5.068460083E-1,9.609117737E0,1.040854652E1
3.759486333E0,-4.052822113E0,2.209405518E-1,9.890233154E0,1.069069192E1
3.769409333E0,-3.971990204E0,5.140310669E-1,9.809850311E0,1.059594721E1
3.779332333E0,-4.061653748E0,1.905537415E-1,9.578581238E0,1.040589066E1
3.789255333E0,-3.971092072E0,5.270539856E-1,9.831255798E0,1.061607030E1
3.799178333E0,-4.066743164E0,4.058061218E-1,9.705367584E0,1.053077578E1
3.809101333E0,-4.001179504E0,3.622467041E-1,9.699230347E0,1.049836794E1
3.819024333E0,-3.919449463E0,4.026626587E-1,9.960287476E0,1.071128134E1
3.828947333E0,-4.232149200E0,5.023553467E-1,9.639504547E0,1.053961554E1
3.838870333E0,-3.915108490E0,4.953199768E-1,9.830507355E0,1.059303031E1
3.848793333E0,-4.047133942E0,3.124003601E-1,9.825118561E0,1.063060872E1
3.858716333E0,-4.151317291E0,6.146218872E-1,9.559421082E0,1.044000607E1
3.868638333E0,-3.913312225E0,3.385958862E-1,9.899513855E0,1.065030677E1
3.878561333E0,-4.150718536E0,5.825885010E-1,9.956844635E0,1.080308423E1
3.888484333E0,-3.945794678E0,5.176235962E-1,9.842632141E0,1.061671500E1
3.898407333E0,-4.147575073E0,5.590873718E-1,9.855655060E0,1.070742239E1
3.908330333E0,-4.101171570E0,5.941145325E-1,9.853858795E0,1.068976676E1
3.918253333E0,-4.067940674E0,4.523593140E-1,9.836345215E0,1.065394094E1
3.928176333E0,-4.139342194E0,7.999365234E-1,1.003797592E1,1.088737860E1
3.938099333E0,-3.963607635E0,5.767506409E-1,1.007764343E1,1.084443285E1
3.948022333E0,-4.487817535E0,5.279521179E-1,9.676028595E0,1.067917455E1
3.957945333E0,-3.926335144E0,6.020480347E-1,1.005040009E1,1.080690110E1
3.967868333E0,-4.079766083E0,6.424639893E-1,1.023646317E1,1.103822583E1
3.977791333E0,-3.879332886E0,6.997947693E-1,9.971663818E0,1.072254707E1
3.987714333E0,-4.436324615E0,3.731739807E-1,9.921368408E0,1.087445566E1
3.997637333E0,-3.915258179E0,7.710466003E-1,1.023122406E1,1.098188077E1
4.007560333E0,-4.215833130E0,4.472698975E-1,9.845925293E0,1.071986680E1
4.017483333E0,-4.017794952E0,6.432124329E-1,1.009740234E1,1.088641046E1
4.027406333E0,-4.110901337E0,4.058061218E-1,1.001941452E1,1.083756687E1
4.037329333E0,-3.952081604E0,7.099736023E-1,1.005519012E1,1.082727389E1
4.047252333E0,-4.001628571E0,2.579136658E-1,1.014141083E1,1.090540069E1
4.057175333E0,-4.099524994E0,6.150709534E-1,9.917027435E0,1.074857435E1
4.067098333E0,-3.904929657E0,2.944377136E-1,9.988578644E0,1.072878709E1
4.077021333E0,-3.938609619E0,5.980064392E-1,1.008138565E1,1.083995360E1
4.086943333E0,-4.147126007E0,1.957928467E-1,9.981393585E0,1.081042122E1
4.096866333E0,-3.596271515E0,6.093827820E-1,1.006761429E1,1.070800512E1
4.106789333E0,-4.213587799E0,3.541635132E-1,9.952204285E0,1.081323837E1
4.116712333E0,-3.951482849E0,1.486408997E-1,9.985285492E0,1.073975033E1
4.126635333E0,-3.777394867E0,6.477030945E-1,1.013736923E1,1.083764210E1
4.136558333E0,-4.089346161E0,1.040336609E-1,9.881551208E0,1.069479450E1
4.146481333E0,-3.828887787E0,5.237608337E-1,9.907147980E0,1.063420369E1
4.156404333E0,-3.776646423E0,2.357597351E-1,1.017179764E1,1.085283871E1
4.166327333E0,-3.958817596E0,4.393363953E-1,9.941426697E0,1.070967871E1
4.176250333E0,-3.893403625E0,1.091230774E-1,9.885592804E0,1.062522681E1
4.186173333E0,-3.686982880E0,4.303550720E-1,1.010877869E1,1.076877220E1
4.196096333E0,-3.917054443E0,1.586700439E-2,9.885293427E0,1.063308955E1
4.206019333E0,-3.767066345E0,4.668791199E-1,9.979896698E0,1.067741088E1
4.215942333E0,-3.651656342E0,2.475851440E-1,1.010144394E1,1.074407102E1
4.225865333E0,-3.864663391E0,1.666035461E-1,9.844578094E0,1.057729161E1
4.235788333E0,-3.783232727E0,2.043251038E-1,9.896071014E0,1.059654756E1
4.245711333E0,-3.672014008E0,2.739303589E-1,1.000549347E1,1.066154887E1
4.255634333E0,-3.798950043E0,-1.212478638E-2,9.955946503E0,1.065612684E1
4.265557333E0,-3.620221710E0,3.611988831E-1,1.003034180E1,1.066978099E1
4.275479333E0,-3.616479492E0,2.091151428E-1,9.945617981E0,1.058479901E1
4.285402625E0,-3.664828949E0,-6.496490479E-2,9.871072998E0,1.052963788E1
4.295325625E0,-3.663032684E0,1.630110168E-1,9.892029419E0,1.054972166E1
4.305248625E0,-3.576811981E0,-3.517684937E-2,9.874964905E0,1.050284501E1
4.315171625E0,-3.625760193E0,-9.026229858E-2,9.850116577E0,1.049662235E1
4.325094625E0,-3.327879639E0,1.437011719E-2,9.575886841E0,1.013768209E1
4.335017625E0,-3.331771545E0,-4.939727783E-1,9.028624878E0,9.636429729E0
4.344940625E0,-2.532882843E0,-1.207239532E0,8.669521637E0,9.112273492E0
4.354863625E0,-2.527194672E0,-1.122964783E0,8.496032410E0,8.934782007E0
4.364786625E0,-2.943179626E0,-8.493338013E-1,8.920250244E0,9.431571377E0
4.374709625E0,-3.534899139E0,4.879852295E-2,9.309291229E0,9.957951416E0
4.384632625E0,-3.776047668E0,-2.353106689E-1,9.448352051E0,1.017768459E1
4.394555625E0,-3.483406219E0,1.661544800E-2,9.663454742E0,1.027213476E1
4.404478625E0,-3.671415253E0,-6.885681152E-2,9.593250732E0,1.027202467E1
4.414401625E0,-3.621269531E0,-8.247848511E-2,9.724228363E0,1.037694623E1
4.424324625E0,-3.701203308E0,1.592687988E-1,9.934690704E0,1.060294072E1
4.434247625E0,-3.832480316E0,-7.035369873E-2,9.645791473E0,1.037950616E1
4.444170625E0,-3.769611053E0,2.091151428E-1,9.804162140E0,1.050596459E1
4.454093625E0,-3.751199341E0,-1.047821045E-2,1.008333160E1,1.075849351E1
4.464016625E0,-3.807482300E0,4.593946838E-1,9.721533966E0,1.045065489E1
4.473938625E0,-3.838318176E0,-9.280700684E-2,9.882149963E0,1.060180114E1
4.483861625E0,-3.859424286E0,3.073109436E-1,1.012135254E1,1.083657571E1
4.493784625E0,-3.833378448E0,2.377056885E-1,9.857900391E0,1.057967365E1
4.503707625E0,-3.913611603E0,9.205856323E-2,9.960736542E0,1.070238772E1
4.513630625E0,-3.727698212E0,2.649490356E-1,1.010099487E1,1.077014528E1
4.523553625E0,-4.001478882E0,2.450404358E-1,9.862091675E0,1.064578462E1
4.533476625E0,-3.759581909E0,4.358935547E-1,1.002106110E1,1.071196176E1
4.543399625E0,-4.031865692E0,1.016386414E-1,9.989925842E0,1.077334162E1
4.553322625E0,-3.801045685E0,4.589456177E-1,9.968969421E0,1.067890119E1
4.563245625E0,-3.895499268E0,3.300636292E-1,9.990075531E0,1.072778941E1
4.573168625E0,-3.847449188E0,3.772155762E-1,1.003947281E1,1.075807469E1
4.583091625E0,-3.871249695E0,3.540138245E-1,1.000474503E1,1.073344414E1
4.593014625E0,-3.903283081E0,2.776725769E-1,1.001207977E1,1.074962614E1
4.602937625E0,-3.839515686E0,4.334985352E-1,1.006791367E1,1.078390872E1
4.612860625E0,-3.934118958E0,1.194515991E-1,9.976753235E0,1.072507183E1
4.622783625E0,-3.813469849E0,8.649014282E-1,1.010533585E1,1.083551657E1
4.632706625E0,-3.943399658E0,-5.583389282E-2,9.943073273E0,1.069664547E1
4.642629625E0,-3.858077087E0,5.854325867E-1,9.999954987E0,1.073436490E1
4.652552625E0,-3.828588409E0,5.122348022E-1,1.020832169E1,1.091468302E1
4.662474625E0,-3.861370239E0,4.376898193E-1,9.914782104E0,1.064916225E1
4.672397625E0,-3.906875610E0,4.915777588E-1,9.970915375E0,1.072028354E1
4.682320625E0,-3.667074280E0,5.441184998E-1,1.025487488E1,1.090440083E1
4.692243625E0,-3.954925690E0,5.733078003E-1,9.845775604E0,1.062588426E1
4.702166625E0,-3.747307434E0,4.375401306E-1,1.006656647E1,1.075032627E1
4.712089625E0,-3.861968994E0,6.963519287E-1,1.018287460E1,1.091286606E1
4.722012625E0,-3.827241211E0,5.352868652E-1,9.764494629E0,1.050141241E1
4.731935625E0,-3.799548798E0,6.882687378E-1,1.014425491E1,1.085431678E1
4.741858625E0,-3.658092957E0,5.888754272E-1,1.028436356E1,1.093144785E1
4.751781625E0,-3.672163696E0,7.500901794E-1,9.914931793E0,1.059968367E1
4.761704625E0,-3.883075104E0,6.685098267E-1,9.980944519E0,1.073053732E1
4.771627625E0,-3.733536072E0,7.512876892E-1,9.945168915E0,1.064941827E1
4.781550625E0,-3.636388092E0,8.030799866E-1,1.006072861E1,1.072783836E1
4.791473625E0,-3.588936768E0,6.337820435E-1,1.023766068E1,1.086700708E1
4.801396625E0,-3.633693695E0,6.926097107E-1,1.000100281E1,1.066318410E1
4.811319625E0,-3.770658875E0,8.687933350E-1,9.879455566E0,1.061019851E1
4.821242625E0,-3.499422913E0,6.036946106E-1,1.013886612E1,1.074276566E1
4.831165625E0,-3.678001556E0,8.196954346E-1,9.958042145E0,1.064716861E1
4.841087625E0,-3.363505554E0,6.548881531E-1,9.999356232E0,1.057020213E1
4.851010625E0,-3.785178680E0,7.780819702E-1,9.935888214E0,1.066090352E1
4.860933625E0,-3.240012360E0,7.286846924E-1,9.977501678E0,1.051566456E1
4.870856625E0,-3.549269257E0,7.328759766E-1,9.891430664E0,1.053445870E1
4.880779625E0,-3.315305786E0,6.568341064E-1,9.917775879E0,1.047783193E1
4.890702625E0,-3.389701080E0,7.833210754E-1,9.787097626E0,1.038705662E1
4.900625625E0,-3.066822510E0,7.803273010E-1,9.456584930E0,9.972026351E0
4.910548625E0,-2.857407990E0,1.325343933E0,9.064699860E0,9.596358711E0
4.920471625E0,-2.094294891E0,7.470964050E-1,9.041348419E0,9.310757508E0
4.930394625E0,-2.517764282E0,1.023870850E0,8.889564056E0,9.295794620E0
4.940317625E0,-2.861898651E0,5.279521179E-1,9.200916595E0,9.650184637E0
4.950240625E0,-3.180136871E0,5.896238708E-1,9.638307037E0,1.016650822E1
4.960163625E0,-3.131488037E0,8.846603394E-2,9.854756927E0,1.034070973E1
4.970086625E0,-3.208877106E0,6.391708374E-1,9.730215912E0,1.026559951E1
4.980009625E0,-3.217259674E0,2.603086853E-1,9.835447083E0,1.035154770E1
4.989932625E0,-3.138373718E0,4.664300537E-1,9.913734283E0,1.040908613E1
4.999855625E0,-3.297941895E0,2.154020691E-1,9.632469177E0,1.018367720E1
5.009778625E0,-3.271896057E0,4.276606750E-1,9.822723541E0,1.036214723E1
5.019700625E0,-3.197201385E0,3.544628906E-1,9.975855103E0,1.048167094E1
5.029623625E0,-3.264261932E0,2.118095398E-1,9.729766846E0,1.026492241E1
5.039546625E0,-3.443589020E0,3.263214111E-2,9.871372375E0,1.045482486E1
5.049469625E0,-3.366349640E0,5.257067871E-1,9.915530548E0,1.048458028E1
5.059392625E0,-3.249442749E0,3.635939026E-1,9.807754669E0,1.033842978E1
5.069315625E0,-3.481160889E0,-1.122665405E-2,9.982441406E0,1.057202647E1
5.079238625E0,-3.394940186E0,2.782713318E-1,9.830806732E0,1.040422101E1
5.089161625E0,-3.350931702E0,1.013392639E-1,9.696386261E0,1.025957696E1
5.099084625E0,-3.352278900E0,4.074526978E-1,9.901459808E0,1.046148641E1
5.109007625E0,-3.529959412E0,-8.592132568E-2,9.887688446E0,1.049925610E1
5.118930625E0,-3.400628357E0,5.857319641E-1,1.000699036E1,1.058523553E1
5.128853625E0,-3.370241547E0,-1.571731567E-2,9.892029419E0,1.045040770E1
5.138776625E0,-3.706292725E0,3.082090759E-1,9.734556885E0,1.042080594E1
5.148699625E0,-3.352727966E0,1.532812500E-1,9.976004791E0,1.052544306E1
5.158622625E0,-3.538042603E0,4.147874451E-1,9.829160156E0,1.045476846E1
5.168545625E0,-3.520529022E0,4.385879517E-2,9.872869263E0,1.048186986E1
5.178468625E0,-3.595373383E0,3.219804382E-1,9.913883972E0,1.055061499E1
5.188391625E0,-3.522325287E0,2.064207458E-1,9.844428406E0,1.045763623E1
5.198313625E0,-3.506009216E0,1.646575928E-2,9.861343231E0,1.046606240E1
5.208236625E0,-3.583697662E0,4.355941772E-1,9.886191559E0,1.052470497E1
5.218159625E0,-3.600762177E0,1.532812500E-1,9.834698639E0,1.047426755E1
5.228082625E0,-3.688479767E0,3.219804382E-1,9.859846344E0,1.053209971E1
5.238005625E0,-3.495980072E0,1.401086426E-1,9.975256348E0,1.057105701E1
5.247928625E0,-3.870052185E0,3.023712158E-1,9.682465210E0,1.043162810E1
5.257851625E0,-3.519331512E0,1.624122620E-1,9.899064789E0,1.050730963E1
5.267774625E0,-3.755839691E0,3.863465881E-1,9.958341522E0,1.065007800E1
5.277697500E0,-3.658691711E0,3.382965088E-1,9.845476227E0,1.050875215E1
5.287620500E0,-3.766317902E0,2.674937439E-1,9.895472260E0,1.059136793E1
5.297543500E0,-3.683240662E0,2.308200073E-1,9.939031677E0,1.060207010E1
5.307466500E0,-3.773502960E0,5.080435181E-1,9.793833618E0,1.050793080E1
5.317389500E0,-3.761228485E0,2.233355713E-1,9.895621948E0,1.058867566E1
5.327312500E0,-3.704646149E0,4.360432434E-1,9.915380859E0,1.059383379E1
5.337235500E0,-3.788621521E0,3.978726196E-1,9.722432098E0,1.044210906E1
5.347158500E0,-3.824546814E0,1.845661926E-1,9.885293427E0,1.060095511E1
5.357080500E0,-3.752995605E0,5.418731689E-1,9.950108643E0,1.064815780E1
5.367003500E0,-3.767365723E0,3.378474426E-1,9.739646301E0,1.044834415E1
5.376926500E0,-3.784879303E0,4.050576782E-1,9.852960663E0,1.056268038E1
5.386849500E0,-3.891607361E0,4.526586914E-1,9.844727783E0,1.059566765E1
5.396772500E0,-3.748504944E0,3.869453430E-1,9.813293152E0,1.051198071E1
5.406695500E0,-3.895798645E0,4.578977966E-1,9.873617706E0,1.062427617E1
5.416618500E0,-3.744313660E0,4.587959290E-1,9.839937744E0,1.053825191E1
5.426541500E0,-3.915407867E0,4.252656555E-1,9.722731476E0,1.049012760E1
5.436464500E0,-3.826193390E0,6.933581543E-1,9.849817200E0,1.058958924E1
5.446387500E0,-3.853137360E0,3.367996216E-1,9.778116302E0,1.051530598E1
5.456310500E0,-3.918102264E0,7.982899475E-1,9.689949646E0,1.048255295E1
5.466233500E0,-3.664828949E0,3.397933960E-1,9.874366150E0,1.053800444E1
5.476156500E0,-4.012855225E0,8.734336853E-1,9.762099609E0,1.059077345E1
5.486079500E0,-3.830684052E0,5.683680725E-1,9.795629883E0,1.053335404E1
5.496002500E0,-3.886517944E0,8.723858643E-1,9.846374359E0,1.062154258E1
5.505925500E0,-3.965852966E0,7.993377686E-1,9.789642334E0,1.059264026E1
5.515848500E0,-3.777993622E0,7.259902954E-1,9.915829926E0,1.063597578E1
5.525770500E0,-4.188290405E0,9.696835327E-1,9.780810699E0,1.068392815E1
5.535693500E0,-3.396586761E0,9.163943481E-1,1.017479141E1,1.076582373E1
5.545616500E0,-4.192930756E0,2.045496368E0,9.998907166E0,1.103371507E1
5.555539500E0,-4.192481689E0,1.774410095E0,9.901010742E0,1.089749731E1
5.565462500E0,-3.726949768E0,1.931134186E0,1.028181885E1,1.110563968E1
5.575385500E0,-3.940405884E0,8.111631775E-1,1.019844223E1,1.096325719E1
5.585308500E0,-3.926784210E0,7.246430969E-1,9.866133270E0,1.064355803E1
5.595231500E0,-3.717818756E0,8.768765259E-1,1.002689896E1,1.072985514E1
5.605154500E0,-3.754941559E0,7.214996338E-1,1.012763947E1,1.082539740E1
5.615077500E0,-3.711980896E0,7.987390137E-1,9.935289459E0,1.063610656E1
5.625000500E0,-3.985611877E0,6.274951172E-1,9.869725800E0,1.066256721E1
5.634923500E0,-3.613036652E0,7.605683899E-1,1.010368927E1,1.075718527E1
5.644846500E0,-3.900438995E0,5.789959717E-1,9.941277008E0,1.069474868E1
5.654769500E0,-3.724854126E0,6.182144165E-1,9.912985840E0,1.060773376E1
5.664692500E0,-3.719165955E0,5.165757751E-1,9.964329071E0,1.064832850E1
5.674615500E0,-3.814817047E0,5.159770203E-1,9.931996307E0,1.065192997E1
5.684538500E0,-3.583847351E0,4.966671753E-1,9.947713623E0,1.058525609E1
5.694460500E0,-3.959715729E0,4.565505981E-1,9.770332489E0,1.055211751E1
5.704383500E0,-3.626658325E0,5.050497437E-1,9.940528564E0,1.059348073E1
5.714306500E0,-3.845503235E0,4.426295471E-1,9.936936035E0,1.066426340E1
5.724229500E0,-3.653452606E0,3.914360046E-1,9.877060547E0,1.053837099E1
5.734152500E0,-3.717968445E0,4.351451111E-1,9.858798523E0,1.054554640E1
5.744075500E0,-3.834426270E0,4.228706360E-1,9.895771637E0,1.062110826E1
5.753998500E0,-3.729793854E0,3.826043701E-1,9.892179108E0,1.057889199E1
5.763921500E0,-3.710184631E0,3.833528137E-1,9.778565369E0,1.046579046E1
5.773844500E0,-3.839515686E0,4.602928162E-1,9.906848602E0,1.063482014E1
5.783767500E0,-3.616629181E0,3.269201660E-1,9.921518097E0,1.056519781E1
5.793690500E0,-3.765868835E0,2.725831604E-1,9.725126495E0,1.043236095E1
5.803613500E0,-3.783532104E0,4.719685364E-1,9.936636658E0,1.064305490E1
5.813536500E0,-3.697012024E0,2.320175171E-1,9.850565643E0,1.052403789E1
5.823459500E0,-3.855682068E0,4.668791199E-1,9.742789764E0,1.048838466E1
5.833382500E0,-3.658691711E0,1.706451416E-1,9.915680237E0,1.057051841E1
5.843304500E0,-3.725602570E0,4.599934387E-1,9.802515564E0,1.049671472E1
5.853227500E0,-3.784879303E0,2.035766602E-1,9.800419922E0,1.050785351E1
5.863150500E0,-3.722758484E0,3.525169373E-1,9.895322571E0,1.057830836E1
5.873073500E0,-3.829636230E0,2.186952209E-1,9.774673462E0,1.050038964E1
5.882996500E0,-3.489393768E0,3.140469360E-1,9.940229187E0,1.053957545E1
5.892919500E0,-3.928430786E0,2.948867798E-1,9.736203461E0,1.050300835E1
5.902842500E0,-3.698209534E0,7.379653931E-2,9.651779022E0,1.033629711E1
5.912765500E0,-3.611988831E0,4.502636719E-1,9.952204285E0,1.059696045E1
5.922688500E0,-3.721411285E0,8.756790161E-2,9.809401245E0,1.049194562E1
5.932611500E0,-3.829336853E0,2.707868958E-1,9.577832794E0,1.031852835E1
5.942534500E0,-3.610641632E0,1.429527283E-1,9.846224670E0,1.048834156E1
5.952457500E0,-3.756887512E0,4.101470947E-1,9.766290894E0,1.047200374E1
5.962380500E0,-3.590433655E0,1.005908203E-1,9.783205719E0,1.042172953E1
5.972303500E0,-3.926335144E0,2.634521484E-1,9.773026886E0,1.053553839E1
5.982226500E0,-3.554658051E0,2.953358459E-1,9.799671478E0,1.042863261E1
5.992148500E0,-3.861070862E0,1.339714050E-1,9.682315521E0,1.042463670E1
6.002071500E0,-3.456462250E0,4.321513367E-1,9.890083466E0,1.048559188E1
6.011994500E0,-3.895199890E0,7.319778442E-2,9.730365601E0,1.048131456E1
6.021917500E0,-3.732637939E0,2.853067017E-1,9.698332214E0,1.039575075E1
6.031840500E0,-3.618874512E0,1.423539734E-1,9.817634125E0,1.046434218E1
6.041763500E0,-3.745810547E0,1.583706665E-1,9.787696381E0,1.048118211E1
6.051686500E0,-3.699706421E0,2.151026917E-1,9.754914551E0,1.043515475E1
6.061609500E0,-3.753145294E0,2.281256104E-1,9.826465759E0,1.052129128E1
6.071532500E0,-3.633693695E0,1.354682922E-1,9.771679688E0,1.042630354E1
6.081455500E0,-3.958817596E0,2.745291138E-1,9.676777039E0,1.045885352E1
6.091378500E0,-3.478017426E0,1.673519897E-1,9.933792572E0,1.052638812E1
6.101301500E0,-3.904630280E0,2.176473999E-1,9.764195251E0,1.051822309E1
6.111224500E0,-3.722309418E0,2.333647156E-1,9.839788055E0,1.052290243E1
6.121147500E0,-3.744313660E0,1.330732727E-1,9.891879730E0,1.057765938E1
6.131070500E0,-3.865860901E0,3.095562744E-1,9.779613190E0,1.052052944E1
6.140993500E0,-3.555107117E0,8.861572266E-2,9.904453583E0,1.052353743E1
6.150915500E0,-4.014651489E0,3.362008667E-1,9.815837860E0,1.061042556E1
6.160838500E0,-3.548520813E0,8.472381592E-2,9.807006226E0,1.042959967E1
6.170761500E0,-3.881727905E0,3.450325012E-1,9.875863037E0,1.061694540E1
6.180684500E0,-3.659440155E0,4.685256958E-2,9.901908875E0,1.055658547E1
6.190607500E0,-3.890858917E0,4.203259277E-1,9.687105560E0,1.044774957E1
6.200530500E0,-3.673510895E0,1.080752563E-1,9.912087708E0,1.057146372E1
6.210453500E0,-3.828588409E0,2.695893860E-1,9.928254089E0,1.064429410E1
6.220376500E0,-3.680845642E0,1.538800049E-1,9.811197510E0,1.048007158E1
6.230299500E0,-3.844605103E0,3.561094666E-1,9.866732025E0,1.059529156E1
6.240222500E0,-3.768413544E0,5.179229736E-2,9.904752960E0,1.059753529E1
6.250145500E0,-3.753145294E0,4.031117249E-1,9.834998016E0,1.053450448E1
6.260068500E0,-3.794010315E0,4.161346436E-2,9.867181091E0,1.057154240E1
6.269991500E0,-3.762725372E0,3.712280273E-1,9.944121094E0,1.063867740E1
6.279914083E0,-3.767665100E0,1.938468933E-1,9.864187317E0,1.056101644E1
6.289837083E0,-3.636837158E0,2.146536255E-1,9.901609497E0,1.055057019E1
6.299759083E0,-3.875141602E0,2.981799316E-1,9.954748993E0,1.068656452E1
6.309682083E0,-3.783232727E0,1.152603149E-1,9.868378601E0,1.056934393E1
6.319605083E0,-3.687132568E0,3.191363525E-1,9.931996307E0,1.059912002E1
6.329528083E0,-3.860621796E0,3.517684937E-2,9.949958954E0,1.067273729E1
6.339451083E0,-3.627556458E0,3.638932800E-1,9.895472260E0,1.054570791E1
6.349374083E0,-3.798650665E0,6.286926270E-3,9.918524323E0,1.062105979E1
6.359297083E0,-3.794459381E0,3.445834351E-1,9.929002533E0,1.063493070E1
6.369220083E0,-3.680695953E0,2.392025757E-1,9.887239380E0,1.055283105E1
6.379143083E0,-3.781885529E0,1.862127686E-1,1.002959335E1,1.072054458E1
6.389066083E0,-3.717818756E0,1.986369324E-1,9.985285492E0,1.065680812E1
6.398989083E0,-3.720513153E0,1.022373962E-1,9.901459808E0,1.057788150E1
6.408912083E0,-3.705095215E0,3.863465881E-1,1.001447479E1,1.068488182E1
6.418835083E0,-3.848946075E0,1.631607056E-2,9.921218719E0,1.064167435E1
6.428758083E0,-3.548371124E0,3.522175598E-1,9.942324829E0,1.056242481E1
6.438680083E0,-3.726650391E0,4.700225830E-2,1.002285736E1,1.069335317E1
6.448603083E0,-3.806883545E0,2.945874023E-1,9.908345490E0,1.061859004E1
6.458526083E0,-3.550466766E0,2.013313293E-1,9.982291718E0,1.059681539E1
6.468449083E0,-3.781735840E0,1.487905884E-1,9.992171173E0,1.068490287E1
6.478372083E0,-3.654949493E0,1.320254517E-1,9.951455841E0,1.060224315E1
6.488295083E0,-3.707340546E0,3.219804382E-1,9.987530823E0,1.065827459E1
6.498218083E0,-3.549119568E0,7.619155884E-2,1.005174728E1,1.066019129E1
6.508141083E0,-3.813320160E0,4.775070190E-2,9.884395294E0,1.059457225E1
6.518064083E0,-3.437302094E0,2.426454163E-1,1.001372635E1,1.059002540E1
6.527987083E0,-3.716920624E0,1.746867371E-1,9.967771912E0,1.063966594E1
6.537910083E0,-3.585493927E0,4.071533203E-2,9.948162689E0,1.057465675E1
6.547833083E0,-3.510649567E0,1.954934692E-1,9.874665527E0,1.048197965E1
6.557756083E0,-3.701951752E0,-3.832031250E-2,9.867330780E0,1.053898154E1
6.567679083E0,-3.495381317E0,1.781295776E-1,1.000309845E1,1.059770727E1
6.577602083E0,-3.478316803E0,1.963916016E-1,9.898915100E0,1.049408298E1
6.587524083E0,-3.541335754E0,9.475296021E-2,9.892478485E0,1.050767185E1
6.597447083E0,-3.582200775E0,3.487747192E-2,9.955347748E0,1.058028013E1
6.607370083E0,-3.463347931E0,-2.005828857E-2,9.759704590E0,1.035601347E1
6.617293083E0,-3.542084198E0,3.427871704E-2,9.767039337E0,1.038954248E1
6.627216083E0,-3.375031586E0,2.844085693E-2,9.936786346E0,1.049434943E1
6.637139083E0,-3.412603455E0,5.059478760E-2,9.798473969E0,1.037586210E1
6.647062083E0,-3.350033569E0,-1.496887207E-4,9.888137512E0,1.044021017E1
6.656985083E0,-3.551364899E0,-1.537303162E-1,9.710457001E0,1.034063832E1
6.666908083E0,-3.298241272E0,1.058299255E-1,9.667196960E0,1.021490541E1
6.676831083E0,-3.602708130E0,-1.026864624E-1,9.724827118E0,1.037122523E1
6.686754083E0,-3.296145630E0,2.155517578E-2,9.739945679E0,1.028258637E1
6.696677083E0,-3.344345398E0,9.265731812E-2,9.870025177E0,1.042164231E1
6.706600083E0,-3.360062714E0,1.676513672E-2,9.894274750E0,1.044925717E1
6.716523083E0,-3.625909882E0,-1.044827271E-1,9.508227539E0,1.017666596E1
6.726445083E0,-3.246448975E0,1.182540894E-2,9.784103851E0,1.030864972E1
6.736368083E0,-3.289110260E0,2.216889954E-1,9.888436890E0,1.042346279E1
6.746291083E0,-3.507655792E0,-1.357676697E-1,9.646839294E0,1.026565100E1
6.756214083E0,-3.439547424E0,2.559677124E-2,9.705966339E0,1.029742319E1
6.766137083E0,-3.355272675E0,1.535806274E-1,9.848619690E0,1.040561154E1
6.776060083E0,-3.278033295E0,1.209484863E-1,9.727371826E0,1.026556835E1
6.785983083E0,-3.516637115E0,-2.784210205E-2,9.635163574E0,1.025689470E1
6.795906083E0,-3.383114777E0,1.324745178E-1,9.894274750E0,1.045751825E1
6.805829083E0,-3.365152130E0,3.207829285E-1,9.782307587E0,1.034991267E1
6.815752083E0,-3.452869720E0,7.185058594E-2,9.636061707E0,1.023626675E1
6.825675083E0,-3.336561584E0,2.706372070E-1,9.917027435E0,1.046677223E1
6.835598083E0,-3.472029877E0,7.858657837E-2,9.768685913E0,1.036766086E1
6.845521083E0,-3.305426331E0,2.095642090E-1,9.648785248E0,1.020141251E1
6.855444083E0,-3.352877655E0,2.959346008E-1,9.829609222E0,1.038992701E1
6.865366083E0,-3.393742676E0,3.038681030E-1,9.699978790E0,1.028102202E1
6.875289083E0,-3.361409912E0,6.077362061E-2,9.655371552E0,1.022394101E1
6.885212083E0,-3.476520538E0,3.858975220E-1,9.979297943E0,1.057456852E1
6.895135083E0,-3.535348206E0,3.293151855E-1,9.945617981E0,1.056041914E1
6.905058083E0,-3.493135986E0,3.740721130E-1,9.859397278E0,1.046659656E1
6.914981083E0,-3.543581085E0,2.520758057E-1,1.009560608E1,1.070241894E1
6.924904083E0,-3.457210693E0,4.945715332E-1,9.933193817E0,1.052925668E1
6.934827083E0,-3.591182098E0,4.186793518E-1,9.823621674E0,1.046782805E1
6.944750083E0,-3.389102325E0,4.581971741E-1,1.015069153E1,1.071132568E1
6.954673083E0,-3.576811981E0,4.987628174E-1,9.841584320E0,1.048327860E1
6.964596083E0,-3.532803497E0,5.195695496E-1,9.871222687E0,1.049722299E1
6.974519083E0,-3.310066681E0,5.489085388E-1,1.016536102E1,1.070478429E1
6.984442083E0,-3.639830933E0,4.610412598E-1,9.760003967E0,1.042682146E1
6.994365083E0,-3.457659760E0,6.478527832E-1,1.000684067E1,1.060716665E1
7.004287083E0,-3.442990265E0,4.734654236E-1,1.016536102E1,1.074304036E1
7.014210083E0,-3.404969330E0,5.813909912E-1,9.867630157E0,1.045475760E1
7.024133083E0,-3.593277740E0,6.547384644E-1,9.864935760E0,1.051937664E1
7.034056083E0,-3.288810883E0,6.915618896E-1,1.000175125E1,1.055128253E1
7.043979083E0,-3.423231354E0,6.056405640E-1,9.851314087E0,1.044670774E1
7.053902083E0,-3.466790771E0,5.881269836E-1,9.938582611E0,1.054229367E1
7.063825083E0,-3.387455750E0,6.662644958E-1,1.003692810E1,1.061407982E1
7.073748083E0,-3.444487152E0,6.762936401E-1,9.954299927E0,1.055509128E1
7.083671083E0,-3.298091583E0,7.176077271E-1,1.000369720E1,1.055776144E1
7.093594083E0,-3.401526489E0,6.706054688E-1,9.934391327E0,1.052198770E1
7.103517083E0,-3.330274658E0,7.114704895E-1,1.007734406E1,1.063718867E1
7.113440083E0,-3.339106293E0,5.617817688E-1,9.988428955E0,1.054675033E1
7.123363083E0,-3.403322754E0,6.059399414E-1,9.943222961E0,1.052698684E1
7.133286083E0,-3.309916992E0,6.899153137E-1,1.009321106E1,1.064445598E1
7.143208083E0,-3.319646759E0,4.481680298E-1,9.868827667E0,1.042183615E1
7.153131083E0,-3.355122986E0,6.917115784E-1,9.889035645E0,1.046557887E1
7.163054083E0,-3.261417847E0,5.882766724E-1,1.005054977E1,1.058283830E1
7.172977083E0,-3.236270142E0,4.778063965E-1,9.834399261E0,1.036422463E1
7.182900083E0,-3.201242981E0,5.754034424E-1,9.951904907E0,1.046993109E1
7.192823083E0,-3.340004425E0,5.306465149E-1,9.945767670E0,1.050502308E1
7.202746083E0,-3.154839478E0,5.340893555E-1,9.724527740E0,1.023741683E1
7.212669083E0,-3.180735626E0,4.281097412E-1,9.937983856E0,1.044336537E1
7.222592083E0,-3.274740143E0,7.381150818E-1,9.887987823E0,1.044227179E1
7.232515083E0,-3.097957764E0,1.046324158E-1,9.741442566E0,1.022271948E1
7.242438083E0,-3.149300995E0,6.063890076E-1,9.876312103E0,1.038399466E1
7.252361083E0,-3.213517456E0,4.879852295E-1,9.750274200E0,1.027777559E1
7.262284083E0,-3.148103485E0,2.679428101E-1,9.638756104E0,1.014337065E1
7.272206083E0,-3.169209595E0,3.739224243E-1,9.918823700E0,1.041953795E1
7.282133583E0,-3.215164032E0,5.372328186E-1,9.746831360E0,1.027748123E1
7.292056583E0,-3.175795898E0,4.830455017E-1,9.587562561E0,1.011139795E1
7.301979583E0,-3.159330139E0,1.808239746E-1,9.894873505E0,1.038857959E1
7.311902583E0,-3.260370026E0,1.429527283E-1,9.722581787E0,1.025568354E1
7.321825583E0,-3.214415588E0,8.839118958E-1,9.715396729E0,1.027145079E1
7.331748583E0,-3.149600372E0,1.294807434E-1,9.937085724E0,1.042508611E1
7.341671583E0,-3.207230530E0,3.472778320E-1,9.680668945E0,1.020403258E1
7.351594583E0,-3.252885590E0,3.585044861E-1,9.768536224E0,1.030214007E1
7.361517583E0,-3.272045746E0,5.599855042E-1,9.796378326E0,1.034354366E1
7.371440583E0,-3.286715240E0,1.778302002E-1,9.666897583E0,1.021190626E1
7.381363583E0,-3.131338348E0,5.989045715E-1,9.912985840E0,1.041303293E1
7.391286583E0,-3.398233337E0,2.143542480E-1,9.767189026E0,1.034368982E1
7.401208583E0,-3.235970764E0,4.692741394E-1,9.698481903E0,1.023485595E1
7.411131583E0,-3.369193726E0,5.328918457E-1,9.829459534E0,1.040450454E1
7.421054583E0,-3.183729401E0,4.248165894E-1,9.740544434E0,1.025645201E1
7.430977583E0,-3.369343414E0,4.800517273E-1,9.592202911E0,1.017807847E1
7.440900583E0,-3.261118469E0,4.697232056E-1,9.833501129E0,1.037078965E1
7.450823583E0,-3.354374542E0,1.330732727E-1,9.818831635E0,1.037684883E1
7.460746583E0,-3.299438782E0,5.995033264E-1,9.736353149E0,1.029768290E1
7.470669583E0,-3.436703339E0,6.158193970E-1,9.777367859E0,1.038205594E1
7.480592583E0,-3.311264191E0,2.481838989E-1,9.854607239E0,1.039900715E1
7.490515583E0,-3.430715790E0,5.246589661E-1,9.814340973E0,1.040991674E1
7.500438583E0,-3.453318787E0,2.213896179E-1,9.803413696E0,1.039621778E1
7.510361583E0,-3.547323303E0,8.653504944E-1,9.779762878E0,1.043916165E1
7.520284583E0,-3.280727692E0,2.145039368E-1,9.846074982E0,1.038048066E1
7.530206583E0,-3.472928009E0,2.395019531E-1,9.853110352E0,1.044999396E1
7.540129583E0,-3.513942719E0,7.393125916E-1,9.826316071E0,1.046187670E1
7.550052583E0,-3.508404236E0,5.766009521E-1,9.681716766E0,1.031392304E1
7.559975583E0,-3.452869720E0,2.395019531E-1,9.825417938E0,1.041722171E1
7.569898583E0,-3.436254272E0,6.376739502E-1,9.875114594E0,1.047532146E1
7.579821583E0,-3.643573151E0,5.096900940E-1,9.768386536E0,1.043823667E1
7.589744583E0,-3.504212952E0,6.045927429E-1,9.756411438E0,1.038424792E1
7.599667583E0,-3.680097198E0,5.676196289E-1,9.785001984E0,1.046955449E1
7.609590583E0,-3.389252014E0,6.147715759E-1,9.956844635E0,1.053583069E1
7.619513583E0,-3.753294983E0,6.562353516E-1,9.810898132E0,1.052480832E1
7.629436583E0,-3.433559875E0,5.554948425E-1,9.940678253E0,1.053161868E1
7.639359583E0,-3.740122375E0,8.328680420E-1,9.920619965E0,1.063488999E1
7.649282583E0,-3.659440155E0,6.577322388E-1,9.926607513E0,1.060007786E1
7.659204583E0,-3.686384125E0,7.137158203E-1,9.906399536E0,1.059412903E1
7.669127583E0,-3.683839417E0,5.917195129E-1,1.002076172E1,1.069282331E1
7.679050583E0,-3.661236420E0,7.848179626E-1,9.941127319E0,1.062292821E1
7.688973583E0,-3.767365723E0,6.825805664E-1,9.874665527E0,1.059093858E1
7.698896583E0,-3.738326111E0,7.265890503E-1,1.000309845E1,1.070350374E1
7.708819583E0,-3.708987122E0,7.644602966E-1,1.005459137E1,1.074410502E1
7.718742583E0,-3.610192566E0,9.375004578E-1,1.005653732E1,1.072596571E1
7.728665583E0,-4.028422852E0,5.620811462E-1,9.960586853E0,1.075906206E1
7.738588583E0,-3.509901123E0,9.134005737E-1,1.003408401E1,1.066942119E1
7.748511583E0,-3.732637939E0,6.882687378E-1,1.000534378E1,1.070108424E1
7.758434583E0,-3.839216309E0,8.316705322E-1,1.008991791E1,1.082763599E1
7.768357583E0,-3.656296692E0,7.159611511E-1,9.943522339E0,1.061860360E1
7.778280583E0,-3.979923706E0,7.590715027E-1,9.957293701E0,1.075005489E1
7.788202583E0,-3.453318787E0,8.506809998E-1,1.016296600E1,1.076730917E1
7.798125583E0,-3.979175262E0,6.231541443E-1,9.896370392E0,1.068458253E1
7.808048583E0,-3.469335480E0,7.568261719E-1,1.005309448E1,1.066179081E1
7.817971583E0,-3.839066620E0,6.719526672E-1,9.923763428E0,1.066166185E1
7.827894583E0,-3.636537781E0,6.475534058E-1,9.980196075E0,1.064180653E1
7.837817583E0,-3.730242920E0,6.282435608E-1,9.829609222E0,1.053236059E1
7.847740583E0,-3.563040619E0,5.713618469E-1,9.968520355E0,1.060156172E1
7.857663583E0,-3.693868561E0,6.426136780E-1,9.946516113E0,1.062971308E1
7.867586583E0,-3.617527313E0,4.821473694E-1,9.777667236E0,1.043655817E1
7.877509583E0,-3.575315094E0,5.399272156E-1,9.906698914E0,1.054595101E1
7.887432583E0,-3.657494202E0,4.748126221E-1,9.824968872E0,1.049441395E1
7.897355583E0,-3.704496460E0,5.779481506E-1,9.739795990E0,1.043651973E1
7.907277583E0,-3.528911591E0,3.638932800E-1,9.976004791E0,1.058802658E1
7.917200583E0,-3.640579376E0,5.917195129E-1,9.790091400E0,1.046182775E1
7.927123583E0,-3.689826965E0,4.406835938E-1,9.684411163E0,1.037288989E1
7.937046583E0,-3.530408478E0,5.129832458E-1,9.888137512E0,1.051200263E1
7.946969583E0,-3.556903381E0,3.490740967E-1,9.859546967E0,1.048732953E1
7.956892583E0,-3.731440430E0,5.523513794E-1,9.778415680E0,1.048075154E1
7.966815583E0,-3.551215210E0,3.305126953E-1,9.807904358E0,1.043625201E1
7.976738583E0,-3.754941559E0,4.507127380E-1,9.812095642E0,1.051570012E1
7.986661583E0,-3.607348480E0,5.165757751E-1,9.807754669E0,1.046288035E1
7.996584583E0,-3.674259338E0,3.189866638E-1,9.728868713E0,1.040446157E1
8.006507583E0,-3.571722565E0,4.834945679E-1,9.918674011E0,1.055324894E1
8.016430583E0,-3.659440155E0,4.915777588E-1,9.733059998E0,1.040988030E1
8.026353583E0,-3.676354980E0,2.007325745E-1,9.728419647E0,1.040182812E1
8.036275583E0,-3.599864044E0,6.161187744E-1,9.859846344E0,1.051452298E1
8.046198583E0,-3.627107391E0,3.173400879E-1,9.693991241E0,1.035519575E1
8.056121583E0,-3.705394592E0,3.321592712E-1,9.779014435E0,1.046276265E1
8.066044583E0,-3.600612488E0,6.114784241E-1,9.815538483E0,1.047297054E1
8.075967583E0,-3.650009766E0,8.846603394E-2,9.721384277E0,1.038439742E1
8.085890583E0,-3.594026184E0,6.140231323E-1,9.846524048E0,1.049990878E1
8.095813583E0,-3.730691986E0,3.243754578E-1,9.724378052E0,1.042049954E1
8.105736583E0,-3.587439880E0,4.001179504E-1,9.714498596E0,1.036345996E1
8.115659583E0,-3.691323853E0,2.628533936E-1,9.848919067E0,1.052122476E1
8.125582583E0,-3.682342529E0,3.818559265E-1,9.713301086E0,1.039488713E1
8.135505583E0,-3.675905914E0,4.833448792E-1,9.788893890E0,1.046749016E1
8.145428583E0,-3.646716614E0,1.827699280E-1,9.883646851E0,1.053652798E1
8.155350583E0,-3.698359222E0,4.567002869E-1,9.658814392E0,1.035273546E1
8.165273583E0,-3.697760468E0,4.558021545E-1,9.814340973E0,1.049773675E1
8.175196583E0,-3.572920074E0,3.191363525E-1,9.830207977E0,1.046425319E1
8.185119583E0,-3.741619263E0,3.308120728E-1,9.688003693E0,1.039069617E1
8.195042583E0,-3.681294708E0,4.626878357E-1,9.900861053E0,1.057322375E1
8.204965583E0,-3.743265839E0,2.920426941E-1,9.704619141E0,1.040562159E1
8.214888583E0,-3.674259338E0,5.111869812E-1,9.745184784E0,1.042737360E1
8.224811583E0,-3.638783112E0,2.541714478E-1,9.908495178E0,1.055858051E1
8.234734583E0,-3.738475800E0,5.752537537E-1,9.780511322E0,1.048644458E1
8.244657583E0,-3.774251404E0,1.989363098E-1,9.767039337E0,1.047280319E1
8.254580583E0,-3.666176147E0,5.809419250E-1,9.836045837E0,1.051314124E1
8.264503583E0,-3.656895447E0,3.076103210E-1,9.842781830E0,1.050465909E1
8.274426583E0,-3.700155487E0,3.776646423E-1,9.793234863E0,1.047574486E1
8.284344708E0,-3.764970703E0,4.104464722E-1,9.838889923E0,1.054263846E1
8.294267708E0,-3.746259613E0,4.953199768E-1,9.928703156E0,1.062350928E1
8.304190708E0,-3.548071747E0,2.933898926E-1,9.845925293E0,1.046982023E1
8.314113708E0,-3.913162537E0,3.903881836E-1,9.827962646E0,1.058556063E1
8.324036708E0,-3.625460815E0,3.873944092E-1,9.941875763E0,1.058937837E1
8.333959708E0,-3.815864868E0,3.936813354E-1,9.685159607E0,1.041720338E1
8.343882708E0,-3.575315094E0,3.135978699E-1,1.004426285E1,1.066622885E1
8.353805708E0,-3.769012299E0,4.058061218E-1,9.904303894E0,1.060496902E1
8.363728708E0,-3.744163971E0,3.248245239E-1,9.664203186E0,1.036923806E1
8.373651708E0,-3.713028717E0,3.228785706E-1,1.002540207E1,1.069577110E1
8.383574708E0,-3.623664551E0,3.273692322E-1,9.956545258E0,1.060051456E1
8.393496708E0,-3.807631989E0,4.346960449E-1,9.699529724E0,1.042918496E1
8.403419708E0,-3.654500427E0,1.692979431E-1,1.001477417E1,1.066207001E1
8.413342708E0,-3.789220276E0,5.342390442E-1,9.869127045E0,1.058504938E1
8.423265708E0,-3.696562958E0,1.341210938E-1,9.844278717E0,1.051629163E1
8.433188708E0,-3.734583893E0,4.137396240E-1,1.005983047E1,1.073864454E1
8.443111708E0,-3.668571167E0,3.212319946E-1,9.901759186E0,1.056439489E1
8.453034708E0,-3.835174713E0,2.716850281E-1,9.929451599E0,1.064783485E1
8.462957708E0,-3.661386108E0,1.225950623E-1,1.008497818E1,1.072975129E1
8.472880708E0,-3.758683777E0,5.415737915E-1,9.924960938E0,1.062665778E1
8.482803708E0,-3.833228760E0,-3.787124634E-2,9.992919617E0,1.070296779E1
8.492726708E0,-3.579356689E0,4.278103638E-1,1.002255798E1,1.065112598E1
8.502649708E0,-3.843257904E0,1.737886047E-1,9.878557434E0,1.060126081E1
8.512571708E0,-3.600013733E0,3.065625000E-1,1.008363098E1,1.071138148E1
8.522494708E0,-3.763922882E0,2.254312134E-1,9.864636383E0,1.056072846E1
8.532417708E0,-3.649111633E0,1.866618347E-1,9.916578369E0,1.056831987E1
8.542340708E0,-3.635340271E0,1.453477478E-1,1.011895752E1,1.075314494E1
8.552263708E0,-3.786675568E0,2.854563904E-1,9.790989532E0,1.050161289E1
8.562186708E0,-3.583997040E0,2.146536255E-1,1.002689896E1,1.065034336E1
8.572109708E0,-3.616030426E0,1.739382935E-1,1.006252487E1,1.069393928E1
8.582032708E0,-3.669020233E0,1.538800049E-1,9.772577820E0,1.043976368E1
8.591955708E0,-3.647764435E0,1.805245972E-1,1.007764343E1,1.071903315E1
8.601878708E0,-3.609593811E0,2.127076721E-1,1.001327728E1,1.064613235E1
8.611801708E0,-3.564387817E0,4.191284180E-2,9.813442841E0,1.044079870E1
8.621724708E0,-3.641627197E0,2.258802795E-1,1.003812561E1,1.068065711E1
8.631646708E0,-3.596271515E0,9.071136475E-2,9.947264557E0,1.057778188E1
8.641569708E0,-3.587439880E0,1.615141296E-1,9.863887939E0,1.049724235E1
8.651492708E0,-3.663930817E0,1.237925720E-1,1.001881577E1,1.066847613E1
8.661415708E0,-3.432512054E0,1.761836243E-1,9.951156464E0,1.052799576E1
8.671338708E0,-3.572620697E0,-2.724334717E-2,1.002046234E1,1.063832818E1
8.681261708E0,-3.508853302E0,7.978408813E-2,9.948761444E0,1.054970480E1
8.691184708E0,-3.536545715E0,7.200027466E-2,9.734107819E0,1.035689117E1
8.701107708E0,-3.402424622E0,-1.796264648E-2,1.004890320E1,1.060930118E1
8.711030708E0,-3.625161438E0,-7.649093628E-2,9.754465485E0,1.040659614E1
8.720953708E0,-3.344195709E0,4.685256958E-2,9.809401245E0,1.036388889E1
8.730876708E0,-3.341052246E0,-1.062789917E-2,1.001043320E1,1.055327039E1
8.740799708E0,-3.329825592E0,1.377136230E-2,9.746831360E0,1.029993445E1
8.750721708E0,-3.503614197E0,-1.422042847E-1,9.519603882E0,1.014487026E1
8.760644708E0,-3.529210968E0,-8.038284302E-2,9.751172333E0,1.037049436E1
8.770567708E0,-2.934048615E0,7.798782349E-2,9.959089966E0,1.038259102E1
8.780490708E0,-3.499572601E0,-6.885681152E-3,9.581275635E0,1.020038718E1
8.790413708E0,-3.226989441E0,3.353027344E-2,9.773026886E0,1.029206683E1
8.800336708E0,-3.532055054E0,-7.679031372E-2,9.694140930E0,1.031783301E1
8.810259708E0,-3.306324463E0,-6.601272583E-2,9.695039063E0,1.024353072E1
8.820182708E0,-3.263513489E0,1.492396545E-1,9.822124786E0,1.035118003E1
8.830105708E0,-3.312162323E0,2.245330811E-3,9.801617432E0,1.034611659E1
8.840028708E0,-3.301384735E0,-1.067280579E-1,9.592951355E0,1.014570095E1
8.849951708E0,-3.291205902E0,9.909393311E-2,9.638756104E0,1.018565045E1
8.859874708E0,-3.231629791E0,5.179229736E-2,9.763596497E0,1.028464536E1
8.869796708E0,-3.282374268E0,-5.239105225E-3,9.735904083E0,1.027432901E1
8.879719708E0,-3.210972748E0,2.239343262E-1,9.781559143E0,1.029754300E1
8.889642708E0,-3.424877930E0,-8.472381592E-2,9.715247040E0,1.030160143E1
8.899565708E0,-3.147953796E0,1.766326904E-1,9.782756653E0,1.027828487E1
8.909488708E0,-3.229683838E0,9.669891357E-2,9.741891632E0,1.026375472E1
8.919411708E0,-3.219954071E0,7.574249268E-2,9.493707733E0,1.002518467E1
8.929334708E0,-3.329825592E0,-3.652404785E-2,9.659113770E0,1.021702262E1
8.939257708E0,-3.100352783E0,3.622467041E-1,9.974657593E0,1.045166035E1
8.949180708E0,-3.360362091E0,1.107696533E-2,9.548942871E0,1.012296725E1
8.959103708E0,-3.255280609E0,1.454974365E-1,9.672735443E0,1.020685222E1
8.969026708E0,-3.268004150E0,5.927673340E-2,9.968370667E0,1.049055664E1
8.978948708E0,-3.209176483E0,4.445755005E-1,9.721683655E0,1.024732132E1
8.988871708E0,-3.468437347E0,5.538482666E-2,9.776469727E0,1.037364379E1
8.998794708E0,-3.129691772E0,2.863545227E-1,9.948611755E0,1.043320878E1
9.008717708E0,-3.392844543E0,3.677851868E-1,9.681118011E0,1.026502343E1
9.018640708E0,-3.341351624E0,1.847158813E-1,9.974208527E0,1.052062671E1
9.028563708E0,-3.308270416E0,3.245251465E-1,9.970466309E0,1.051000324E1
9.038486708E0,-3.407364349E0,4.020639038E-1,9.762249298E0,1.034762285E1
9.048409708E0,-3.176993408E0,2.673440552E-1,1.008931915E1,1.058107371E1
9.058332708E0,-3.608995056E0,3.885919189E-1,9.912686462E0,1.055638205E1
9.068255708E0,-3.159479828E0,2.424957275E-1,9.933942261E0,1.042709575E1
9.078178708E0,-3.507057037E0,5.884263611E-1,1.003932312E1,1.065052597E1
9.088101708E0,-3.181633759E0,1.368154907E-1,1.003543121E1,1.052859874E1
9.098023708E0,-3.455564117E0,6.959028625E-1,9.905202026E0,1.051371634E1
9.107946708E0,-3.293451233E0,2.906954956E-1,9.906998291E0,1.044413424E1
9.117869708E0,-3.280278625E0,4.809498596E-1,9.965376892E0,1.050239388E1
9.127792708E0,-3.335513763E0,3.619473267E-1,1.005638763E1,1.060130134E1
9.137715708E0,-3.217858429E0,4.261637878E-1,9.967771912E0,1.048297216E1
9.147638708E0,-3.324137421E0,4.411326599E-1,1.000549347E1,1.055245882E1
9.157561708E0,-3.277135162E0,3.855981445E-1,1.002824615E1,1.055717868E1
9.167484708E0,-3.321742401E0,4.291575623E-1,9.781259766E0,1.033881963E1
9.177407708E0,-3.365002441E0,4.641847229E-1,9.985584869E0,1.054754066E1
9.187330708E0,-3.109034729E0,3.968247986E-1,1.017464172E1,1.064645016E1
9.197253708E0,-3.261567535E0,3.905378723E-1,9.824519806E0,1.035912796E1
9.207175708E0,-3.298690338E0,6.256988525E-1,1.005399261E1,1.059979361E1
9.217098708E0,-3.217708740E0,2.797682190E-1,1.006731491E1,1.057273613E1
9.227021708E0,-3.267555084E0,5.138813782E-1,9.825567627E0,1.036738971E1
9.236944708E0,-3.159479828E0,3.896397400E-1,1.013183075E1,1.062017543E1
9.246867708E0,-3.204985199E0,3.977229309E-1,1.001133133E1,1.051935685E1
9.256790708E0,-3.326233063E0,4.405339050E-1,9.831704865E0,1.038847039E1
9.266713708E0,-3.076252899E0,4.604425049E-1,1.012195129E1,1.058910937E1
9.276636708E0,-3.254232788E0,4.156855774E-1,9.932595062E0,1.046036664E1
9.286560083E0,-3.086731110E0,3.465293884E-1,9.865983582E0,1.034338550E1
9.296483083E0,-3.155138855E0,4.845423889E-1,9.921817474E0,1.042267454E1
9.306406083E0,-3.007845154E0,3.399430847E-1,9.874216461E0,1.032777055E1
9.316328083E0,-3.080893250E0,4.513114929E-1,9.765692139E0,1.025008918E1
9.326251083E0,-3.077001343E0,2.207908630E-1,9.823621674E0,1.029661248E1
9.336174083E0,-3.027304688E0,5.950126648E-1,9.860295410E0,1.033170070E1
9.346097083E0,-3.073558502E0,1.047821045E-3,9.701475677E0,1.017670837E1
9.356020083E0,-3.059188385E0,6.074368286E-1,9.754315796E0,1.024081490E1
9.365943083E0,-2.914738770E0,2.299218750E-1,9.874366150E0,1.029813930E1
9.375866083E0,-2.987637177E0,4.700225830E-1,9.701176300E0,1.016167893E1
9.385789083E0,-3.042273560E0,2.890489197E-1,9.763596497E0,1.023067907E1
9.395712083E0,-2.997217255E0,4.945715332E-1,9.773326263E0,1.023454046E1
9.405635083E0,-2.906655579E0,1.691482544E-1,9.538913727E0,9.973371189E0
9.415558083E0,-2.808160400E0,3.273692322E-1,9.642049255E0,1.004798733E1
9.425480083E0,-2.845881958E0,5.641767883E-1,9.505383453E0,9.938292316E0
9.435403083E0,-2.769840088E0,2.691403198E-1,9.472601624E0,9.872924194E0
9.445326083E0,-3.120860138E0,3.915856934E-1,9.775272217E0,1.026883899E1
9.455249083E0,-2.994672546E0,4.909790039E-1,9.737850037E0,1.019974742E1
9.465172083E0,-3.076851654E0,-2.170486450E-2,9.608668671E0,1.008930131E1
9.475095083E0,-2.976709900E0,5.923182678E-1,9.928403778E0,1.038194800E1
9.485018083E0,-3.086731110E0,1.796264648E-1,9.794432373E0,1.027088507E1
9.494941083E0,-3.089425507E0,4.498146057E-1,9.677375793E0,1.016850458E1
9.504864083E0,-3.156336365E0,2.573149109E-1,1.003153931E1,1.051952713E1
9.514787083E0,-3.183280334E0,6.658154297E-1,9.911339264E0,1.043126214E1
9.524710083E0,-3.210373993E0,1.182540894E-2,9.754914551E0,1.026961532E1
9.534633083E0,-3.329825592E0,6.523434448E-1,9.979447632E0,1.054052491E1
9.544555083E0,-3.013233948E0,2.323168945E-1,9.969119110E0,1.041714384E1
9.554478083E0,-3.367397461E0,4.969665527E-1,9.856852570E0,1.042803356E1
9.564401083E0,-3.258274384E0,2.643502808E-1,1.003617966E1,1.055514733E1
9.574324083E0,-3.260519714E0,2.100132751E-1,9.884694672E0,1.041068120E1
9.584247083E0,-3.216960297E0,5.215155029E-1,9.916578369E0,1.043835900E1
9.594170083E0,-3.305426331E0,2.197430420E-1,1.003498215E1,1.056763914E1
9.604093083E0,-3.357518005E0,5.450166321E-1,9.879754944E0,1.044890081E1
9.614016083E0,-3.215912476E0,2.767744446E-1,9.934091949E0,1.044532814E1
9.623939083E0,-3.305126953E0,3.914360046E-1,9.965077515E0,1.050618181E1
9.633862083E0,-3.369642792E0,4.273612976E-1,9.816586304E0,1.038761267E1
9.643785083E0,-3.323388977E0,5.132826233E-1,9.902507629E0,1.045791713E1
9.653707083E0,-3.290756836E0,3.379971313E-1,9.928703156E0,1.046529832E1
9.663630083E0,-3.378624115E0,3.276686096E-1,9.893975372E0,1.046007726E1
9.673553083E0,-3.290906525E0,6.102809143E-1,9.977801056E0,1.052421125E1
9.683476083E0,-3.389850769E0,3.113525391E-1,9.852661285E0,1.042415287E1
9.693399083E0,-3.385809174E0,5.403762817E-1,9.904004517E0,1.048069729E1
9.703322083E0,-3.250939636E0,5.334906006E-1,9.930948486E0,1.046312375E1
9.713245083E0,-3.411855011E0,5.141807556E-1,9.772877197E0,1.036408535E1
9.723168083E0,-3.306773529E0,6.162684631E-1,9.917626190E0,1.047252822E1
9.733091083E0,-3.396886139E0,7.445516968E-1,9.909393311E0,1.050186976E1
9.743014083E0,-3.402274933E0,6.601272583E-1,9.852511597E0,1.044429162E1
9.752937083E0,-3.316952362E0,8.014334106E-1,9.970017242E0,1.053782294E1
9.762859083E0,-3.371139679E0,6.279441833E-1,9.897567902E0,1.047476716E1
9.772782083E0,-3.350931702E0,8.873547363E-1,9.895472260E0,1.048506142E1
9.782705083E0,-3.356170807E0,7.801776123E-1,9.942923584E0,1.052303611E1
9.792628083E0,-3.435206451E0,8.637039185E-1,9.889784088E0,1.050497297E1
9.802551083E0,-3.432062988E0,8.756790161E-1,9.954449615E0,1.056583822E1
9.812474083E0,-3.265309753E0,7.848179626E-1,9.971065063E0,1.052142222E1
9.822397083E0,-3.260968781E0,9.223818970E-1,9.889634399E0,1.045416540E1
9.832320083E0,-3.573369141E0,8.111631775E-1,9.920619965E0,1.057571053E1
9.842243083E0,-3.104544067E0,8.228388977E-1,1.005533981E1,1.055580961E1
9.852166083E0,-3.418441315E0,7.575746155E-1,9.870623932E0,1.047324578E1
9.862088083E0,-3.512894897E0,9.807604980E-1,9.983489227E0,1.062884654E1
9.872011083E0,-3.130739594E0,7.313790894E-1,1.001267853E1,1.051618643E1
9.881934083E0,-3.526516571E0,8.704399109E-1,9.853709106E0,1.050188402E1
9.891857083E0,-3.202290802E0,7.051835632E-1,1.003513184E1,1.055726391E1
9.901780083E0,-3.365002441E0,7.755372620E-1,9.823921051E0,1.041317071E1
9.911703083E0,-3.213667145E0,5.641767883E-1,9.910141754E0,1.043344917E1
9.921626083E0,-3.250041504E0,6.346801758E-1,9.938582611E0,1.047573449E1
9.931549083E0,-3.257376251E0,6.131250000E-1,9.776619415E0,1.032321217E1
9.941472083E0,-3.281027069E0,6.030958557E-1,9.848619690E0,1.039827741E1
9.951395083E0,-3.327280884E0,5.996530151E-1,9.795480194E0,1.036251968E1
9.961318083E0,-3.317251740E0,5.563929749E-1,9.859846344E0,1.041778778E1
9.971240083E0,-3.192561035E0,4.270619202E-1,9.966424713E0,1.047398918E1
9.981163083E0,-3.331172791E0,6.822811890E-1,9.823471985E0,1.039532691E1
9.991086083E0,-3.281925201E0,5.165757751E-1,9.876012726E0,1.041986137E1
1.000100908E1,-3.324436798E0,4.731660461E-1,9.835297394E0,1.039273020E1
1.001093208E1,-3.252735901E0,6.131250000E-1,9.780810699E0,1.032571891E1
1.002085508E1,-3.320095825E0,6.010002136E-1,9.895921326E0,1.045530949E1
1.003077808E1,-3.290756836E0,3.243754578E-1,9.890382843E0,1.042851729E1
1.004070108E1,-3.303779755E0,6.201603699E-1,9.756710815E0,1.031954289E1
1.005062408E1,-3.321742401E0,3.668870544E-1,9.864337006E0,1.041507193E1
1.006054708E1,-3.390000458E0,4.569996643E-1,9.864636383E0,1.044088132E1
1.007047008E1,-3.282973022E0,4.358935547E-1,9.722132721E0,1.027072440E1
1.008039208E1,-3.325185242E0,4.523593140E-1,9.759704590E0,1.032052903E1
1.009031508E1,-3.357967072E0,3.852987671E-1,9.911488953E0,1.047196310E1
1.010023808E1,-3.356769562E0,8.241860962E-1,9.736502838E0,1.033182811E1
1.011016108E1,-3.289709015E0,-6.436614990E-2,9.748627625E0,1.028892944E1
1.012008408E1,-3.325933685E0,8.095166016E-1,9.949360199E0,1.052173562E1
1.013000708E1,-3.423979797E0,1.616638184E-1,9.687554626E0,1.027611247E1
1.013993008E1,-3.401676178E0,8.433462524E-1,9.725276184E0,1.033748667E1
1.014985308E1,-3.253184967E0,4.999603271E-2,9.915380859E0,1.043553974E1
1.015977608E1,-3.556304626E0,9.069639587E-1,9.599537659E0,1.027720825E1
1.016969908E1,-3.231330414E0,2.863545227E-1,9.825867004E0,1.034751939E1
1.017962108E1,-3.409010925E0,5.411247253E-1,9.917925568E0,1.050140081E1
1.018954408E1,-3.383863220E0,3.863465881E-1,9.682614899E0,1.026415244E1
1.019946708E1,-3.444337463E0,7.270381165E-1,9.766590271E0,1.038163429E1
1.020939008E1,-3.295995941E0,1.730401611E-1,9.837991791E0,1.037687885E1
1.021931308E1,-3.508703613E0,7.093748474E-1,9.679022369E0,1.031977169E1
1.022923608E1,-3.379522247E0,3.802093506E-1,9.740993500E0,1.031759100E1
1.023915908E1,-3.367098083E0,6.625222778E-1,9.776769104E0,1.036153943E1
1.024908208E1,-3.453767853E0,4.288581848E-1,9.736951904E0,1.034024488E1
1.025900508E1,-3.258873138E0,4.867877197E-1,9.824070740E0,1.036192947E1
1.026892808E1,-3.475622406E0,6.143225098E-1,9.653425598E0,1.027842250E1
1.027885108E1,-3.485801239E0,5.372328186E-1,9.597591705E0,1.022512572E1
1.028877658E1,-3.356470184E0,4.614903259E-1,9.868079224E0,1.043349668E1
1.029869958E1,-3.307222595E0,6.309379578E-1,9.828262024E0,1.038896234E1
1.030862258E1,-3.534599762E0,3.794609070E-1,9.715696106E0,1.034563371E1
1.031854558E1,-3.332220612E0,5.774990845E-1,9.777517548E0,1.034587110E1
1.032846858E1,-3.599714355E0,6.231541443E-1,9.737101593E0,1.039987557E1
1.033839158E1,-3.450923767E0,6.869215393E-1,9.906399536E0,1.051272980E1
1.034831458E1,-3.444337463E0,4.595443726E-1,9.903106384E0,1.049505396E1
1.035823758E1,-3.671714630E0,6.869215393E-1,9.798324280E0,1.048620562E1
1.036816058E1,-3.494483185E0,5.704637146E-1,9.948462067E0,1.055976984E1
1.037808358E1,-3.510649567E0,5.438191223E-1,9.952204285E0,1.056724987E1
1.038800658E1,-3.633693695E0,4.793032837E-1,9.915829926E0,1.057152518E1
1.039792858E1,-3.588038635E0,5.933660889E-1,9.931098175E0,1.057604915E1
1.040785158E1,-3.497027893E0,4.564009094E-1,9.857002258E0,1.046890631E1
1.041777458E1,-3.454965363E0,5.605842590E-1,9.914033661E0,1.051375783E1
1.042769758E1,-3.608246613E0,3.933819580E-1,9.900711365E0,1.054505944E1
1.043762058E1,-3.477268982E0,5.538482666E-1,9.785451050E0,1.039967306E1
1.044754358E1,-3.634591827E0,5.355862427E-1,9.903555450E0,1.056302613E1
1.045746658E1,-3.465293884E0,4.800517273E-1,1.004381378E1,1.063564322E1
1.046738958E1,-3.565585327E0,5.697152710E-1,9.830956421E0,1.047309307E1
1.047731258E1,-3.615431671E0,4.355941772E-1,9.948611755E0,1.059414764E1
1.048723558E1,-3.611090698E0,4.718188477E-1,9.916278992E0,1.056386189E1
1.049715758E1,-3.501817932E0,5.294490051E-1,9.813442841E0,1.043296245E1
1.050708058E1,-3.530558167E0,3.215313721E-1,1.000743942E1,1.061682943E1
1.051700358E1,-3.475921783E0,4.713697815E-1,9.939630432E0,1.054042100E1
1.052692658E1,-3.614084473E0,3.746708679E-1,9.772428131E0,1.042604126E1
1.053684958E1,-3.494932251E0,3.835025024E-1,9.929152222E0,1.053326585E1
1.054677258E1,-3.530258789E0,4.596940613E-1,9.932145996E0,1.055090374E1
1.055669558E1,-3.629652100E0,2.306703186E-1,9.835147705E0,1.048607236E1
1.056661858E1,-3.418291626E0,4.586462402E-1,9.955796814E0,1.053626899E1
1.057654158E1,-3.639830933E0,9.654922485E-2,9.872569885E0,1.052261028E1
1.058646458E1,-3.491040344E0,5.276527405E-1,9.886341248E0,1.049788185E1
1.059638658E1,-3.576063538E0,1.983375549E-1,9.943372650E0,1.056873823E1
1.060630958E1,-3.489543457E0,3.218307495E-1,9.894574127E0,1.049681312E1
1.061623258E1,-3.600313110E0,1.899549866E-1,9.815239105E0,1.045644567E1
1.062615558E1,-3.554658051E0,3.365002441E-1,9.926607513E0,1.054923519E1
1.063607858E1,-3.583697662E0,2.502795410E-1,9.914482727E0,1.054525943E1
1.064600158E1,-3.475323029E0,1.871109009E-1,9.955497437E0,1.054631736E1
1.065592458E1,-3.584446106E0,4.008663940E-1,9.920170898E0,1.055550749E1
1.066584758E1,-3.612288208E0,4.999603271E-2,9.856553192E0,1.049775055E1
1.067577058E1,-3.421435089E0,3.899391174E-1,9.940079498E0,1.051966972E1
1.068569358E1,-3.566483459E0,2.487826538E-1,9.862391052E0,1.049039820E1
1.069561558E1,-3.584146729E0,1.200503540E-1,9.943222961E0,1.057015623E1
1.070553858E1,-3.561992798E0,2.514770508E-1,9.999655609E0,1.061810462E1
1.071546158E1,-3.558250580E0,7.244934082E-2,9.955048370E0,1.057210406E1
1.072538458E1,-3.518134003E0,4.029620361E-1,9.994117126E0,1.060292518E1
1.073530758E1,-3.621269531E0,-8.936416626E-2,9.934690704E0,1.057448147E1
1.074523058E1,-3.427272949E0,4.406835938E-1,9.931397552E0,1.051537252E1
1.075515358E1,-3.642375641E0,-8.232879639E-3,9.935439148E0,1.058205647E1
1.076507658E1,-3.441942444E0,2.296224976E-1,9.978250122E0,1.055770665E1
1.077499958E1,-3.619622955E0,7.589218140E-2,9.940827942E0,1.057957892E1
1.078492258E1,-3.491040344E0,-1.077758789E-2,1.012853760E1,1.071329794E1
1.079484558E1,-3.702550507E0,1.001417542E-1,9.947713623E0,1.061489119E1
1.080476758E1,-3.567980347E0,-2.335144043E-2,9.931846619E0,1.055332205E1
1.081469058E1,-3.603007507E0,1.661544800E-2,1.010398865E1,1.072718629E1
1.082461358E1,-3.528612213E0,-1.481918335E-2,1.000115250E1,1.060539368E1
1.083453658E1,-3.535797272E0,2.050735474E-2,9.982890472E0,1.059058002E1
1.084445958E1,-3.517834625E0,-2.290237427E-2,1.003573059E1,1.063445219E1
1.085438258E1,-3.492088165E0,4.191284180E-3,9.964478760E0,1.055867105E1
1.086430558E1,-3.566184082E0,2.963836670E-2,9.921069031E0,1.054258783E1
1.087422858E1,-3.397933960E0,-4.954696655E-2,9.853409729E0,1.042295991E1
1.088415158E1,-3.519481201E0,6.885681152E-2,9.844877472E0,1.045529060E1
1.089407358E1,-3.435056763E0,-5.104385376E-2,9.767787781E0,1.035431787E1
1.090399658E1,-3.261268158E0,-4.176315308E-2,9.773925018E0,1.030374808E1
1.091391958E1,-3.300935669E0,1.652563477E-1,9.816436615E0,1.035789138E1
1.092384258E1,-3.305875397E0,-4.700225830E-2,9.662257233E0,1.021225911E1
1.093376558E1,-3.341351624E0,-4.191284180E-3,9.827962646E0,1.038043824E1
1.094368858E1,-3.492686920E0,-2.131567383E-1,9.748178558E0,1.035718509E1
1.095361158E1,-3.000360718E0,2.853067017E-1,9.748178558E0,1.020345773E1
1.096353458E1,-3.417992249E0,-1.754351807E-1,9.714049530E0,1.029933040E1
1.097345758E1,-3.268153839E0,-4.490661621E-2,9.661808167E0,1.019967564E1
1.098338058E1,-3.216810608E0,2.395019531E-2,9.666598206E0,1.018781453E1
1.099330258E1,-3.182980957E0,2.302212524E-1,9.809401245E0,1.031546036E1
1.100322558E1,-3.340752869E0,-7.259902954E-2,9.658814392E0,1.022049880E1
1.101314858E1,-3.405119019E0,-9.490264893E-2,9.649982758E0,1.023357265E1
1.102307158E1,-3.081342316E0,1.865121460E-1,9.837243347E0,1.031022861E1
1.103299458E1,-3.181933136E0,2.387535095E-1,9.670340424E0,1.018318151E1
1.104291758E1,-3.329825592E0,-1.844165039E-1,9.669292603E0,1.022824361E1
1.105284058E1,-3.112028503E0,1.927990723E-1,9.867031403E0,1.034795640E1
1.106276358E1,-3.342100067E0,1.311273193E-1,9.691296844E0,1.025222228E1
1.107268658E1,-3.168461151E0,5.523513794E-2,9.760902100E0,1.026242694E1
1.108260958E1,-3.283422089E0,1.025367737E-1,9.819879456E0,1.035477701E1
1.109253258E1,-3.235372009E0,4.055067444E-1,9.726773071E0,1.025876124E1
1.110245458E1,-3.295546875E0,-8.921447754E-2,9.828711090E0,1.036687755E1
1.111237758E1,-3.213816833E0,3.598516846E-1,9.804012451E0,1.032360267E1
1.112230058E1,-3.199895782E0,1.387614441E-1,9.753567352E0,1.026599551E1
1.113222358E1,-3.342549133E0,2.170486450E-1,9.976453857E0,1.052375296E1
1.114214658E1,-3.116070099E0,1.576222229E-1,9.854008484E0,1.033616084E1
1.115206958E1,-3.333567810E0,3.733236694E-1,9.680818634E0,1.024550118E1
1.116199258E1,-3.070265350E0,2.246827698E-1,1.003632935E1,1.049785304E1
1.117191558E1,-3.345393219E0,5.807922363E-2,9.787397003E0,1.034350855E1
1.118183858E1,-3.229833527E0,5.195695496E-1,9.784552917E0,1.031694009E1
1.119176158E1,-3.210823059E0,1.730401611E-1,1.002704865E1,1.053000627E1
1.120168358E1,-3.190465393E0,2.101629639E-1,9.883796539E0,1.038810242E1
1.121160658E1,-3.158282318E0,3.562591553E-1,9.837692413E0,1.033836833E1
1.122152958E1,-3.238964539E0,1.707948303E-1,9.872270508E0,1.039142854E1
1.123145258E1,-3.107088776E0,3.044668579E-1,9.878856812E0,1.036043014E1
1.124137558E1,-3.180735626E0,4.670288086E-1,9.829160156E0,1.034154652E1
1.125129858E1,-3.148552551E0,9.610015869E-2,9.849068756E0,1.034054030E1
1.126122158E1,-3.125350800E0,5.418731689E-1,9.945168915E0,1.043876568E1
1.127114458E1,-3.190315704E0,1.052311707E-1,9.840237122E0,1.034502076E1
1.128106758E1,-3.141517181E0,6.638694763E-1,9.963430939E0,1.046803749E1
1.129098646E1,-2.968327332E0,-1.688488770E-1,9.956545258E0,1.039097063E1
1.130090846E1,-3.457659760E0,8.277786255E-1,9.717791748E0,1.034775845E1
1.131083146E1,-2.920726318E0,7.065307617E-2,1.009859985E1,1.051272339E1
1.132075446E1,-3.204835510E0,4.043092346E-1,9.907597046E0,1.042088844E1
1.133067746E1,-3.099005585E0,3.692820740E-1,9.971813507E0,1.044879273E1
1.134060046E1,-3.219055939E0,2.477348328E-1,1.003558090E1,1.054213345E1
1.135052346E1,-3.123105469E0,2.743794250E-1,9.913734283E0,1.039765355E1
1.136044646E1,-3.062481537E0,3.830534363E-1,9.983339539E0,1.044952590E1
1.137036946E1,-3.208428040E0,3.704795837E-1,9.939031677E0,1.045062755E1
1.138029246E1,-3.017425232E0,2.691403198E-1,9.991273041E0,1.044044197E1
1.139021446E1,-3.077151031E0,4.185296631E-1,1.009470795E1,1.056158862E1
1.140013746E1,-3.131637726E0,2.218386841E-1,9.892478485E0,1.037870405E1
1.141006046E1,-3.157683563E0,4.381388855E-1,9.915979614E0,1.041583328E1
1.141998346E1,-2.902913361E0,1.362167358E-1,1.005489075E1,1.046643630E1
1.142990646E1,-3.040926361E0,4.640350342E-1,9.798024902E0,1.026955956E1
1.143982946E1,-2.937790833E0,3.260220337E-1,9.872420197E0,1.030541537E1
1.144975246E1,-2.917732544E0,2.805166626E-1,9.895621948E0,1.032061948E1
1.145967546E1,-2.957849121E0,2.583627319E-1,9.808802490E0,1.024832811E1
1.146959846E1,-2.997516632E0,3.776646423E-1,9.903256073E0,1.035385037E1
1.147952146E1,-2.880909119E0,1.969903564E-1,9.852661285E0,1.026710168E1
1.148944346E1,-2.910846863E0,3.147953796E-1,9.778265991E0,1.020718430E1
1.149936646E1,-2.872526550E0,2.468367004E-1,9.842482452E0,1.025606152E1
1.150928946E1,-2.918331299E0,2.152523804E-1,9.768985291E0,1.019784608E1
1.151921246E1,-2.861599274E0,2.954855347E-1,9.757608948E0,1.017285577E1
1.152913546E1,-2.865790558E0,1.713935852E-1,9.867779846E0,1.027692612E1
1.153905846E1,-2.950514374E0,1.645079041E-1,9.902058563E0,1.033360352E1
1.154898146E1,-2.899171143E0,3.299139404E-1,9.863588562E0,1.028612735E1
1.155890446E1,-2.943628693E0,7.170089722E-2,9.803264008E0,1.023592087E1
1.156882746E1,-2.809657288E0,2.541714478E-1,9.856553192E0,1.025233720E1
1.157875046E1,-2.869532776E0,1.601669312E-1,9.753866730E0,1.016847029E1
1.158867246E1,-2.883453827E0,3.891906738E-3,9.702673187E0,1.012206442E1
1.159859546E1,-2.836301880E0,3.474275208E-1,9.864636383E0,1.027016870E1
1.160851846E1,-2.908751221E0,-1.378633118E-1,9.666149139E0,1.009526023E1
1.161844146E1,-2.927312622E0,3.538641357E-1,9.673932953E0,1.011332575E1
1.162836446E1,-2.872676239E0,-2.634521484E-2,9.933493195E0,1.034056333E1
1.163828746E1,-2.980601807E0,2.043251038E-1,9.752220154E0,1.019958498E1
1.164821046E1,-2.884202271E0,4.340972900E-2,9.842931519E0,1.025689076E1
1.165813346E1,-2.911595306E0,2.284249878E-1,9.879305878E0,1.030195369E1
1.166805646E1,-3.035836945E0,1.336720276E-1,9.569599915E0,1.004048887E1
1.167797946E1,-2.815495148E0,9.220825195E-2,9.847422180E0,1.024242349E1
1.168790146E1,-2.975662079E0,2.844085693E-1,9.944570160E0,1.038411906E1
1.169782446E1,-3.092419281E0,1.275347900E-1,9.720935211E0,1.020175982E1
1.170774746E1,-2.984044647E0,1.866618347E-1,9.925859070E0,1.036639008E1
1.171767046E1,-3.029100952E0,2.016307068E-1,9.927206268E0,1.038101786E1
1.172759346E1,-3.130140839E0,1.742376709E-1,9.832004242E0,1.031971162E1
1.173751646E1,-3.048410797E0,2.685415649E-1,1.002240829E1,1.047919801E1
1.174743946E1,-3.099903717E0,1.345701599E-1,9.938432922E0,1.041153020E1
1.175736246E1,-3.164868622E0,3.049159241E-1,9.944869537E0,1.044077570E1
1.176728546E1,-3.136876831E0,2.646496582E-1,1.004186783E1,1.052374198E1
1.177720746E1,-3.092868347E0,2.332150269E-1,9.914782104E0,1.038860568E1
1.178713046E1,-3.237168274E0,2.350112915E-1,9.894424438E0,1.041317068E1
1.179705346E1,-3.011737061E0,3.508703613E-1,9.954748993E0,1.040628164E1
1.180697646E1,-3.137475586E0,2.237846375E-1,9.891580353E0,1.037965291E1
1.181689946E1,-3.126997375E0,3.713777161E-1,9.899663544E0,1.038842492E1
1.182682246E1,-3.145409088E0,3.647914124E-1,9.949809265E0,1.044152171E1
1.183674546E1,-3.197500763E0,2.951861572E-1,9.910740509E0,1.041796158E1
1.184666846E1,-3.080294495E0,4.475692749E-1,9.948013000E0,1.042360279E1
1.185659146E1,-3.125650177E0,4.167333984E-1,9.915530548E0,1.040485953E1
1.186651446E1,-3.073708191E0,3.742218018E-1,9.838141479E0,1.031391060E1
1.187643646E1,-3.130589905E0,4.183799744E-1,9.900262299E0,1.039186357E1
1.188635946E1,-3.093616791E0,4.366419983E-1,9.869276733E0,1.035199229E1
1.189628246E1,-3.126548309E0,4.122427368E-1,9.820029144E0,1.031398181E1
1.190620546E1,-3.089275818E0,5.101391602E-1,9.907597046E0,1.039058931E1
1.191612846E1,-3.134930878E0,5.884263611E-1,9.793983307E0,1.030029836E1
1.192605146E1,-3.099754028E0,5.783972168E-1,9.851463776E0,1.034380766E1
1.193597446E1,-3.091371460E0,6.135740662E-1,9.867330780E0,1.035843943E1
1.194589746E1,-3.115770721E0,6.423143005E-1,9.813143463E0,1.031592844E1
1.195582046E1,-3.183729401E0,8.107141113E-1,9.765093384E0,1.030293352E1
1.196574246E1,-2.982248383E0,6.902146912E-1,9.810598755E0,1.027706425E1
1.197566546E1,-2.730771332E0,5.427713013E-1,1.000908600E1,1.038910561E1
1.198558846E1,-3.262166290E0,1.029409332E0,9.678423615E0,1.026514959E1
1.199551146E1,-2.968926086E0,1.070573730E0,9.472152557E0,9.984103580E0
1.200543446E1,-2.799478455E0,8.596623230E-1,9.776769104E0,1.020594499E1
1.201535746E1,-2.737956390E0,1.073268127E0,9.959988098E0,1.038506970E1
1.202528046E1,-2.951262817E0,8.238867188E-1,9.674531708E0,1.014816758E1
1.203520346E1,-3.322790222E0,8.246351624E-1,9.615105286E0,1.020642972E1
1.204512646E1,-2.702779541E0,4.691244507E-1,1.004111938E1,1.040909091E1
1.205504946E1,-3.231330414E0,1.039737854E0,9.944121094E0,1.050752565E1
1.206497146E1,-2.976260834E0,5.462141418E-1,9.930050354E0,1.038086598E1
1.207489446E1,-3.152893524E0,7.185058594E-1,9.931247864E0,1.044445654E1
1.208481746E1,-3.020419006E0,5.415737915E-1,1.003198837E1,1.049080664E1
1.209474046E1,-3.102149048E0,6.462062073E-1,9.982591095E0,1.047344433E1
1.210466346E1,-3.172951813E0,3.095562744E-1,9.929900665E0,1.042911192E1
1.211458646E1,-3.091371460E0,7.081773376E-1,1.005414230E1,1.054247931E1
1.212450946E1,-3.118914185E0,3.841012573E-1,9.899962921E0,1.038674277E1
1.213443246E1,-3.090623016E0,4.454736328E-1,9.959239655E0,1.043728182E1
1.214435546E1,-3.231480103E0,5.680686951E-1,1.005923172E1,1.058079905E1
1.215427746E1,-3.101400604E0,1.793270874E-1,9.870623932E0,1.034794959E1
1.216420046E1,-3.193758545E0,5.977070618E-1,1.002525238E1,1.053864473E1
1.217412346E1,-3.091072083E0,2.890489197E-1,1.005339386E1,1.052183463E1
1.218404646E1,-3.200943604E0,4.471202087E-1,9.791288910E0,1.031093085E1
1.219396946E1,-3.144660645E0,4.415817261E-1,9.979447632E0,1.047250018E1
1.220389246E1,-3.130290527E0,2.745291138E-1,9.915081482E0,1.040110214E1
1.221381546E1,-3.306174774E0,5.025050354E-1,9.792785797E0,1.034804120E1
1.222373846E1,-3.027903442E0,2.122586060E-1,9.966724091E0,1.041867756E1
1.223366146E1,-3.333118744E0,4.382885742E-1,9.810149689E0,1.037018873E1
1.224358446E1,-3.087629242E0,2.734812927E-1,9.856403503E0,1.033232483E1
1.225350646E1,-3.215164032E0,4.134402466E-1,9.860295410E0,1.037948159E1
1.226342946E1,-3.213367767E0,4.650828552E-1,9.868528290E0,1.038893089E1
1.227335246E1,-3.250789948E0,2.231858826E-1,9.879455566E0,1.040293658E1
1.228327546E1,-3.199596405E0,3.742218018E-1,9.784103851E0,1.030078382E1
1.229319800E1,-3.207529907E0,4.731660461E-1,9.875264282E0,1.039389142E1
1.230312100E1,-3.284619598E0,2.142045593E-1,9.858199768E0,1.039320510E1
1.231304400E1,-3.241060181E0,4.176315308E-1,9.686207428E0,1.022259759E1
1.232296700E1,-3.275638275E0,3.594026184E-1,9.886790314E0,1.042149697E1
1.233289000E1,-3.086880798E0,6.084846497E-1,9.910291443E0,1.039773837E1
1.234281200E1,-3.383713531E0,3.124003601E-1,9.723330231E0,1.030001272E1
1.235273500E1,-3.259920959E0,4.644841003E-1,9.915530548E0,1.044799388E1
1.236265800E1,-3.286864929E0,3.561094666E-1,9.699679413E0,1.024763757E1
1.237258100E1,-3.282224579E0,4.475692749E-1,9.730964355E0,1.027934744E1
1.238250400E1,-3.250191193E0,5.581892395E-1,9.953551483E0,1.048563327E1
1.239242700E1,-3.310216370E0,3.535647583E-1,9.681118011E0,1.023750880E1
1.240235000E1,-3.311862946E0,7.048841858E-1,9.756261749E0,1.032714584E1
1.241227300E1,-3.174149323E0,4.189787292E-1,9.881551208E0,1.038729134E1
1.242219600E1,-3.301983490E0,7.638615417E-1,9.660311279E0,1.023758729E1
1.243211900E1,-3.291954346E0,5.134323120E-1,9.726922760E0,1.028171204E1
1.244204100E1,-3.178939362E0,7.854167175E-1,9.808503113E0,1.034066092E1
1.245196400E1,-3.366649017E0,7.861651611E-1,9.721983032E0,1.031839791E1
1.246188700E1,-3.185226288E0,7.408094788E-1,9.742340698E0,1.027655913E1
1.247181000E1,-3.392245789E0,8.180488586E-1,9.834998016E0,1.043569458E1
1.248173300E1,-3.230432281E0,8.096662903E-1,9.778265991E0,1.032984695E1
1.249165600E1,-3.237767029E0,8.758287048E-1,9.816586304E0,1.037379284E1
1.250157900E1,-3.166066132E0,6.887178040E-1,9.950108643E0,1.046436663E1
1.251150200E1,-3.589086456E0,1.045276337E0,9.645192719E0,1.034426831E1
1.252142500E1,-3.372337189E0,7.943980408E-1,9.934690704E0,1.052149256E1
1.253134700E1,-3.103496246E0,9.126521301E-1,1.020772293E1,1.070804512E1
1.254127000E1,-3.381168823E0,8.524772644E-1,9.908944244E0,1.050457977E1
1.255119300E1,-3.479364624E0,7.911048889E-1,9.824519806E0,1.045241668E1
1.256111600E1,-3.331172791E0,7.937992859E-1,9.967771912E0,1.053960656E1
1.257103900E1,-3.072660370E0,7.776329041E-1,1.004336472E1,1.053162521E1
1.258096200E1,-3.522624664E0,8.316705322E-1,9.974807281E0,1.061118941E1
1.259088500E1,-3.387755127E0,6.616241455E-1,9.921667786E0,1.050495707E1
1.260080800E1,-3.178490295E0,7.217990112E-1,9.856253815E0,1.038121061E1
1.261073100E1,-3.406466217E0,6.378236389E-1,9.996212769E0,1.057993860E1
1.262065300E1,-3.189267883E0,6.204597473E-1,1.001522324E1,1.052905962E1
1.263057600E1,-3.313509521E0,5.111869812E-1,9.780511322E0,1.033920012E1
1.264049900E1,-3.215613098E0,6.210585022E-1,9.985435181E0,1.050879617E1
1.265042200E1,-3.232677612E0,5.132826233E-1,9.920470276E0,1.044650152E1
1.266034500E1,-3.377875671E0,4.270619202E-1,9.779313812E0,1.035506661E1
1.267026800E1,-3.221301270E0,5.194198608E-1,9.948911133E0,1.047031096E1
1.268019100E1,-3.246299286E0,3.962260437E-1,9.833201752E0,1.036278490E1
1.269011400E1,-3.276386719E0,4.697232056E-1,9.842183075E0,1.038382962E1
1.270003700E1,-3.166515198E0,3.736230469E-1,9.961335297E0,1.045918800E1
1.270995900E1,-3.311264191E0,3.376977539E-1,9.813592529E0,1.036267864E1
1.271988200E1,-3.319347382E0,4.221221924E-1,9.788444824E0,1.034455926E1
1.272980500E1,-3.204087067E0,3.689826965E-1,9.861492920E0,1.037551757E1
1.273972800E1,-3.289110260E0,3.080593872E-1,9.789642334E0,1.033200096E1
1.274965100E1,-3.256777496E0,2.165995789E-1,9.821226654E0,1.034939651E1
1.275957400E1,-3.247496796E0,3.275189209E-1,9.854607239E0,1.038107836E1
1.276949700E1,-3.305576019E0,3.507206726E-1,9.829609222E0,1.037646642E1
1.277942000E1,-3.178789673E0,2.380050659E-1,9.846673737E0,1.034979874E1
1.278934300E1,-3.414848785E0,3.384461975E-1,9.614955597E0,1.020897199E1
1.279926500E1,-3.187471619E0,2.357597351E-1,9.857151947E0,1.036238402E1
1.280918800E1,-3.234922943E0,3.028202820E-1,9.967322845E0,1.048350854E1
1.281911100E1,-3.408412170E0,2.833607483E-1,9.647887115E0,1.023617568E1
1.282903400E1,-3.238515472E0,2.984793091E-1,9.859696655E0,1.038222955E1
1.283895700E1,-3.247347107E0,2.924917603E-1,9.969418488E0,1.048904760E1
1.284888000E1,-3.361409912E0,1.736389160E-1,9.686955872E0,1.025506417E1
1.285880300E1,-3.197351074E0,3.912863159E-1,9.864187317E0,1.037681793E1
1.286872600E1,-3.399879913E0,2.357597351E-1,9.817783813E0,1.039248022E1
1.287864900E1,-3.282224579E0,1.833686829E-1,9.768835602E0,1.030712236E1
1.288857100E1,-3.363056488E0,2.811154175E-1,9.854906616E0,1.041673458E1
1.289849400E1,-3.209475861E0,2.565664673E-1,9.881102142E0,1.039243673E1
1.290841700E1,-3.451971588E0,1.966909790E-1,9.752818909E0,1.034757323E1
1.291834000E1,-3.300785980E0,1.453477478E-1,9.800270233E0,1.034222465E1
1.292826300E1,-3.388353882E0,3.763174438E-1,9.923014984E0,1.049232020E1
1.293818600E1,-3.239114227E0,4.385879517E-2,9.864337006E0,1.038262631E1
1.294810900E1,-3.356021118E0,3.659889221E-1,9.680070190E0,1.025185761E1
1.295803200E1,-3.341201935E0,1.643582153E-1,1.000519409E1,1.054962335E1
1.296795500E1,-3.243455200E0,1.386117554E-1,9.920470276E0,1.043814856E1
1.297787700E1,-3.541335754E0,2.719844055E-1,9.609566803E0,1.024494063E1
1.298780000E1,-3.193010101E0,8.232879639E-2,9.992769928E0,1.049083135E1
1.299772300E1,-3.459456024E0,2.535726929E-1,9.788444824E0,1.038488263E1
1.300764600E1,-3.222947845E0,2.020797729E-1,9.777667236E0,1.029713580E1
1.301756900E1,-3.394341431E0,2.097138977E-1,9.941576385E0,1.050716302E1
1.302749200E1,-3.375181274E0,4.490661621E-4,9.757159882E0,1.032443789E1
1.303741500E1,-3.252286835E0,3.439846802E-1,9.900561676E0,1.042673566E1
1.304733800E1,-3.376827850E0,1.975891113E-1,9.859097900E0,1.042323458E1
1.305726100E1,-3.427272949E0,1.107696533E-2,9.731712799E0,1.031758482E1
1.306718400E1,-3.350931702E0,2.622546387E-1,9.984387360E0,1.053496615E1
1.307710600E1,-3.203039246E0,1.187031555E-1,9.867630157E0,1.037514702E1
1.308702900E1,-3.472928009E0,2.040257263E-1,9.774972839E0,1.037559393E1
1.309695200E1,-3.319197693E0,8.277786255E-2,9.970166931E0,1.050848011E1
1.310687500E1,-3.293002167E0,2.311193848E-1,9.782906342E0,1.032485041E1
1.311679800E1,-3.397035828E0,1.257385254E-2,9.854008484E0,1.042312303E1
1.312672100E1,-3.329675903E0,3.020718384E-1,9.981094208E0,1.052616885E1
1.313664400E1,-3.390898590E0,4.490661621E-4,9.771829376E0,1.034344444E1
1.314656700E1,-3.283272400E0,1.929487610E-1,1.001627106E1,1.054242822E1
1.315648900E1,-3.472179565E0,-1.826202393E-2,9.988279266E0,1.057459631E1
1.316641200E1,-3.344046021E0,2.450404358E-1,9.864037628E0,1.041834569E1
1.317633500E1,-3.405268707E0,-7.439529419E-2,9.995015259E0,1.055943747E1
1.318625800E1,-3.411705322E0,1.230441284E-1,9.910291443E0,1.048182949E1
1.319618100E1,-3.374133453E0,-6.017486572E-2,9.922266541E0,1.048044707E1
1.320610400E1,-3.415148163E0,7.903564453E-2,1.001866608E1,1.058504386E1
1.321602700E1,-3.391497345E0,3.712280273E-2,9.910740509E0,1.047503746E1
1.322595000E1,-3.344046021E0,3.323089600E-2,1.002420456E1,1.056732819E1
1.323587300E1,-3.448528748E0,2.574645996E-2,9.953252106E0,1.053376670E1
1.324579500E1,-3.445684662E0,8.876541138E-2,9.882299652E0,1.046615825E1
1.325571800E1,-3.312162323E0,3.891906738E-3,1.016850449E1,1.069434046E1
1.326564100E1,-3.441044312E0,-3.382965088E-2,9.900861053E0,1.048184049E1
1.327556400E1,-3.433410187E0,1.474433899E-1,9.813891907E0,1.039819789E1
1.328548713E1,-3.345842285E0,-8.906478882E-2,1.012823822E1,1.066694908E1
1.329541012E1,-3.332070923E0,1.320254517E-1,9.882599030E0,1.043004750E1
1.330533313E1,-3.387755127E0,-1.287322998E-2,9.902058563E0,1.046555370E1
1.331525613E1,-3.273392944E0,9.340576172E-2,1.009934830E1,1.061699873E1
1.332517913E1,-3.415447540E0,8.397537231E-2,9.793683929E0,1.037249144E1
1.333510113E1,-3.235072632E0,-2.649490356E-2,9.980495453E0,1.049174373E1
1.334502413E1,-3.348087616E0,6.047424316E-2,9.940827942E0,1.048968102E1
1.335494713E1,-3.263663177E0,7.080276489E-2,9.761949921E0,1.029330737E1
1.336487013E1,-3.231330414E0,2.874023438E-2,1.002615051E1,1.053404084E1
1.337479313E1,-3.234623566E0,2.874023438E-2,9.955647125E0,1.046797618E1
1.338471613E1,-3.237168274E0,-5.403762817E-2,9.751172333E0,1.027460658E1
1.339463913E1,-3.184627533E0,9.026229858E-2,9.930050354E0,1.042860968E1
1.340456213E1,-3.193758545E0,-1.856140137E-2,9.789043579E0,1.029688362E1
1.341448513E1,-3.200793915E0,5.748046875E-2,9.774224396E0,1.028512753E1
1.342440713E1,-3.063978424E0,-5.508544922E-2,9.966873779E0,1.042734727E1
1.343433013E1,-3.313659210E0,1.712438965E-1,9.758357391E0,1.030704617E1
1.344425313E1,-3.085982666E0,-1.047821045E-3,9.862391052E0,1.033392701E1
1.345417613E1,-3.206033020E0,4.505630493E-2,9.866282959E0,1.037420923E1
1.346409913E1,-3.068469086E0,1.519340515E-1,9.774972839E0,1.024639842E1
1.347402213E1,-3.115621033E0,6.152206421E-2,9.781858521E0,1.026623765E1
1.348394513E1,-3.091521149E0,3.143463135E-3,9.766590271E0,1.024420804E1
1.349386813E1,-3.021766205E0,1.278341675E-1,9.830207977E0,1.028495996E1
1.350379113E1,-3.059787140E0,9.086105347E-2,9.820627899E0,1.028665570E1
1.351371313E1,-3.092419281E0,-1.945953369E-3,9.750573578E0,1.022921042E1
1.352363613E1,-3.014730835E0,6.316864014E-2,9.820029144E0,1.027256369E1
1.353355913E1,-3.035836945E0,1.505868530E-1,9.748328247E0,1.021121374E1
1.354348213E1,-3.053500214E0,3.308120728E-2,9.714498596E0,1.018314494E1
1.355340513E1,-2.929857330E0,1.113684082E-1,9.783205719E0,1.021310829E1
1.356332813E1,-2.936593323E0,1.719923401E-1,9.744136963E0,1.017847566E1
1.357325113E1,-3.075205078E0,-8.891510010E-2,9.705966339E0,1.018187481E1
1.358317413E1,-2.954705658E0,2.814147949E-2,9.721533966E0,1.016067420E1
1.359309713E1,-2.940335541E0,2.167492676E-1,9.734706573E0,1.017138464E1
1.360301913E1,-2.978655853E0,1.137634277E-1,9.757309570E0,1.020247141E1
1.361294213E1,-2.986439667E0,-1.490899658E-1,9.876461792E0,1.031918346E1
1.362286513E1,-3.115022278E0,2.633024597E-1,9.807006226E0,1.029320470E1
1.363278813E1,-2.986589355E0,1.565744019E-1,9.797126770E0,1.024343324E1
1.364271113E1,-3.013383636E0,2.204914856E-1,9.917626190E0,1.036766158E1
1.365263413E1,-3.028202820E0,1.173559570E-1,9.872569885E0,1.032721748E1
1.366255713E1,-3.142265625E0,3.059637451E-1,9.812095642E0,1.030750542E1
1.367248013E1,-2.929408264E0,1.821711731E-1,9.921368408E0,1.034640857E1
1.368240213E1,-2.980003052E0,1.465452576E-1,9.840237122E0,1.028261447E1
1.369232513E1,-3.028502197E0,3.683839417E-1,9.938732300E0,1.039643843E1
1.370224813E1,-3.142565002E0,2.885998535E-1,9.896520081E0,1.038749798E1
1.371217113E1,-2.927312622E0,2.522254944E-1,9.922715607E0,1.034857777E1
1.372209413E1,-2.993175659E0,2.616558838E-1,1.002854553E1,1.046896794E1
1.373201713E1,-3.115321655E0,3.306623840E-1,9.914033661E0,1.039724146E1
1.374194013E1,-2.864293671E0,2.661465454E-1,9.986483002E0,1.039253843E1
1.375186313E1,-3.138972473E0,2.667453003E-1,9.926457825E0,1.041435865E1
1.376178613E1,-2.964734802E0,5.077441406E-1,9.837243347E0,1.028682717E1
1.377170813E1,-2.882855072E0,1.552272034E-1,9.953252106E0,1.036350213E1
1.378163113E1,-2.938838654E0,4.462220764E-1,9.935888214E0,1.037100580E1
1.379155413E1,-2.943628693E0,2.453398132E-1,9.836644592E0,1.027057537E1
1.380147713E1,-2.888243866E0,3.402424622E-1,9.998308411E0,1.041267922E1
1.381140013E1,-2.997516632E0,4.082011414E-1,9.959688721E0,1.040899292E1
1.382132313E1,-3.003204803E0,3.933819580E-1,9.903106384E0,1.035594054E1
1.383124613E1,-2.892734528E0,9.565109253E-2,1.011311966E1,1.051913739E1
1.384116913E1,-2.920426941E0,5.143304443E-1,9.909542999E0,1.034371654E1
1.385109213E1,-2.876268768E0,4.760101318E-1,9.800419922E0,1.022485884E1
1.386101413E1,-2.850821686E0,2.306703186E-1,1.002944366E1,1.042929208E1
1.387093713E1,-2.906505890E0,3.610491943E-1,9.762548676E0,1.019242315E1
1.388086013E1,-2.796933746E0,4.501139832E-1,9.908794556E0,1.030580664E1
1.389078313E1,-2.903961182E0,3.068618774E-1,1.002136047E1,1.043814258E1
1.390070613E1,-2.815944214E0,3.628454590E-1,9.690398712E0,1.009777331E1
1.391062913E1,-2.742896118E0,3.164419556E-1,9.930798798E0,1.030749142E1
1.392055213E1,-2.700534210E0,4.546046448E-1,1.002435425E1,1.039169036E1
1.393047513E1,-2.900218964E0,2.776725769E-1,9.641600189E0,1.007218081E1
1.394039713E1,-2.670746155E0,3.064128113E-1,9.929750977E0,1.028721188E1
1.395032013E1,-2.737657013E0,3.628454590E-1,9.942175140E0,1.031858853E1
1.396024313E1,-2.707120514E0,2.782713318E-1,9.716444550E0,1.009035337E1
1.397016613E1,-2.737207947E0,2.950364685E-1,9.808353424E0,1.018740157E1
1.398008913E1,-2.633922729E0,2.412982178E-1,9.736353149E0,1.008921932E1
1.399001213E1,-2.646795959E0,1.529818726E-1,9.623787231E0,9.982294976E0
1.399993513E1,-2.655178528E0,3.836521912E-1,9.735604706E0,1.009847320E1
1.400985813E1,-2.604883118E0,1.194515991E-1,9.606573029E0,9.954191584E0
1.401978113E1,-2.619253235E0,2.486329651E-1,9.667047272E0,1.001868798E1
1.402970313E1,-2.682122498E0,2.311193848E-1,9.807006226E0,1.016978704E1
1.403962613E1,-2.617606659E0,4.245172119E-1,9.725425873E0,1.008047558E1
1.404954913E1,-2.874472504E0,-1.963916016E-1,9.756860504E0,1.017337155E1
1.405947213E1,-2.575394440E0,3.888912964E-1,9.956096191E0,1.029114883E1
1.406939513E1,-2.851121063E0,1.516346741E-1,9.655371552E0,1.006866844E1
1.407931813E1,-2.667303314E0,3.999682617E-1,9.781858521E0,1.014688315E1
1.408924113E1,-2.869233398E0,8.502319336E-2,9.926158447E0,1.033287718E1
1.409916413E1,-2.719245300E0,4.128414917E-1,9.810748444E0,1.018899004E1
1.410908713E1,-2.852617950E0,-1.008901978E-1,9.825268250E0,1.023149570E1
1.411900913E1,-2.844385071E0,4.427792358E-1,9.895172882E0,1.030538821E1
1.412893213E1,-2.805166626E0,1.398092651E-1,9.846823425E0,1.023955263E1
1.413885513E1,-2.887345734E0,3.308120728E-1,9.933792572E0,1.035019019E1
1.414877813E1,-2.806364136E0,2.649490356E-2,9.993368683E0,1.037997106E1
1.415870113E1,-2.931653595E0,5.144801331E-1,9.881700897E0,1.032023717E1
1.416862413E1,-2.908601532E0,2.040257263E-1,9.941127319E0,1.035990356E1
1.417854713E1,-2.886597290E0,2.034269714E-1,9.900411987E0,1.031464900E1
1.418847013E1,-3.021167450E0,2.526745605E-1,9.897418213E0,1.035133733E1
1.419839213E1,-2.910098419E0,3.582051086E-1,1.005788452E1,1.047654641E1
1.420831513E1,-3.034340057E0,2.878514099E-1,9.968220978E0,1.042379525E1
1.421823813E1,-2.924917603E0,1.794767761E-1,1.004561005E1,1.046430294E1
1.422816113E1,-3.080294495E0,3.225791931E-1,1.003079086E1,1.049804919E1
1.423808413E1,-2.916684723E0,2.655477905E-1,9.975256348E0,1.039631207E1
1.424800713E1,-3.095562744E0,2.574645996E-1,1.000863693E1,1.047958062E1
1.425793013E1,-2.927462311E0,3.731739807E-1,1.005893234E1,1.048291058E1
1.426785313E1,-3.179238739E0,3.496728516E-1,9.948761444E0,1.045024805E1
1.427777613E1,-3.006348267E0,2.121089172E-1,1.005099884E1,1.049312622E1
1.428769813E1,-3.131637726E0,2.986289978E-1,9.947713623E0,1.043328043E1
1.429762113E1,-2.897524567E0,3.761677551E-1,9.995015259E0,1.041333188E1
1.430754413E1,-3.013832703E0,3.993695068E-1,9.994266815E0,1.044643732E1
1.431746713E1,-3.050356750E0,2.903961182E-1,9.849966888E0,1.031556367E1
1.432739013E1,-3.017275543E0,3.930825806E-1,9.917775879E0,1.037404184E1
1.433731313E1,-2.870580597E0,4.327500916E-1,9.962383118E0,1.037673277E1
1.434723613E1,-3.068319397E0,4.948709106E-1,9.712852020E0,1.019798880E1
1.435715913E1,-2.891686707E0,4.330494690E-1,9.872120819E0,1.029602609E1
1.436708113E1,-2.976709900E0,5.541476440E-1,9.858199768E0,1.031270983E1
1.437700413E1,-2.856659546E0,5.888754272E-1,9.790091400E0,1.021533982E1
1.438692713E1,-2.918181610E0,5.496569824E-1,9.884544983E0,1.032095617E1
1.439685013E1,-2.878963165E0,6.387217712E-1,9.776469727E0,1.021155006E1
1.440677313E1,-3.024161224E0,6.282435608E-1,9.692943420E0,1.017317026E1
1.441669613E1,-2.850073242E0,5.715115356E-1,9.840087433E0,1.026045143E1
1.442661913E1,-2.876867523E0,6.273454285E-1,9.711355133E0,1.014792331E1
1.443654213E1,-2.859952698E0,7.370672607E-1,9.815388794E0,1.025009535E1
1.444646513E1,-2.824775848E0,7.262896729E-1,9.764644318E0,1.019093391E1
1.445638713E1,-2.856360168E0,7.696994019E-1,9.656119995E0,1.009910313E1
1.446631013E1,-2.582878876E0,7.297325134E-1,9.766590271E0,1.012867505E1
1.447623313E1,-2.855162659E0,1.209933929E0,9.476343842E0,9.970806714E0
1.448615612E1,-2.492167511E0,9.678872681E-1,9.583970032E0,9.949883730E0
1.449607913E1,-2.765050049E0,7.571255493E-1,9.817634125E0,1.022764297E1
1.450600213E1,-2.961741028E0,7.532336426E-1,9.717043304E0,1.018627515E1
1.451592513E1,-2.860252075E0,5.911207581E-1,9.706864471E0,1.013674916E1
1.452584813E1,-2.774779816E0,7.256909180E-1,1.011192215E1,1.051080396E1
1.453577013E1,-2.941083984E0,4.587959290E-1,9.911039886E0,1.034839023E1
1.454569313E1,-2.963237915E0,7.348219299E-1,9.680968323E0,1.015095512E1
1.455561613E1,-2.836451569E0,5.827381897E-1,1.002031265E1,1.043032631E1
1.456553913E1,-2.963088226E0,5.219645691E-1,9.951755219E0,1.039662305E1
1.457546213E1,-2.959795074E0,6.551875305E-1,9.807305603E0,1.026513033E1
1.458538513E1,-3.082390137E0,4.351451111E-1,9.924960938E0,1.040169841E1
1.459530813E1,-2.743494873E0,5.140310669E-1,1.004201752E1,1.042272075E1
1.460523113E1,-3.244203644E0,4.504133606E-1,9.931397552E0,1.045755166E1
1.461515413E1,-2.827021179E0,3.228785706E-1,9.926008759E0,1.032579049E1
1.462507613E1,-3.101400604E0,5.689668274E-1,9.791887665E0,1.028705366E1
1.463499913E1,-2.980452118E0,3.959266663E-1,1.005578888E1,1.049565352E1
1.464492213E1,-3.029400330E0,3.156935120E-1,9.902208252E0,1.036005101E1
1.465484513E1,-3.093467102E0,4.062551880E-1,9.877659302E0,1.035870336E1
1.466476813E1,-2.978356476E0,4.255650330E-1,1.005713608E1,1.049750918E1
1.467469113E1,-3.146756287E0,3.848497009E-1,9.873018951E0,1.036950759E1
1.468461413E1,-3.062331848E0,3.038681030E-1,9.921967163E0,1.038824550E1
1.469453713E1,-3.183729401E0,3.770658875E-1,9.900112610E0,1.040627413E1
1.470445913E1,-3.035088501E0,4.590953064E-1,9.832453308E0,1.030046935E1
1.471438213E1,-3.076103210E0,2.624043274E-1,1.002001328E1,1.048484301E1
1.472430513E1,-3.081492004E0,3.902384949E-1,9.984237671E0,1.045623646E1
1.473422813E1,-3.141217804E0,4.270619202E-1,9.642348633E0,1.015009942E1
1.474415112E1,-3.210823059E0,4.113446045E-1,9.818083191E0,1.033795660E1
1.475407413E1,-3.018922119E0,3.311114502E-1,1.004216721E1,1.049136062E1
1.476399713E1,-3.209475861E0,5.688171387E-1,9.752818909E0,1.028308149E1
1.477392013E1,-3.099903717E0,1.724414062E-1,9.855655060E0,1.033310581E1
1.478384213E1,-3.237018585E0,5.284011841E-1,9.903106384E0,1.043211451E1
1.479376513E1,-3.016527100E0,4.331991577E-1,9.893526306E0,1.035224420E1
1.480368813E1,-3.331472168E0,3.302133179E-1,9.873917084E0,1.042602447E1
1.481361113E1,-3.040477295E0,3.980223083E-1,9.817484436E0,1.028522847E1
1.482353413E1,-3.280578003E0,4.915777588E-1,9.781409454E0,1.032859195E1
1.483345713E1,-3.050656128E0,5.228627014E-1,9.885293427E0,1.035851893E1
1.484338013E1,-3.217109985E0,3.122506714E-1,9.764195251E0,1.028527132E1
1.485330313E1,-3.119962006E0,5.647755432E-1,9.873318329E0,1.036993487E1
1.486322513E1,-3.204236755E0,3.830534363E-1,9.804611206E0,1.032202810E1
1.487314813E1,-3.243305511E0,5.453160095E-1,9.713600464E0,1.025526373E1
1.488307113E1,-3.057092743E0,4.161346436E-1,9.863887939E0,1.033514728E1
1.489299413E1,-3.304378510E0,5.162763977E-1,9.861043854E0,1.041276354E1
1.490291713E1,-3.111878815E0,5.719606018E-1,9.869276733E0,1.036405094E1
1.491284013E1,-3.348536682E0,4.998106384E-1,9.734706573E0,1.030664934E1
1.492276313E1,-3.118315430E0,6.671626282E-1,9.846524048E0,1.035002574E1
1.493268613E1,-3.297193451E0,4.376898193E-1,9.810000000E0,1.035853064E1
1.494260913E1,-3.193159790E0,8.671467590E-1,9.783654785E0,1.032802565E1
1.495253113E1,-3.281027069E0,5.589376831E-1,9.764494629E0,1.031614779E1
1.496245413E1,-3.005001068E0,7.370672607E-1,1.000205063E1,1.046968559E1
1.497237713E1,-3.403322754E0,6.307882690E-1,9.800719299E0,1.039396933E1
1.498230013E1,-3.098556519E0,7.897576904E-1,9.777068481E0,1.028668255E1
1.499222313E1,-3.284918976E0,7.604187012E-1,9.936337280E0,1.049284174E1
1.500214612E1,-3.290756836E0,5.882766724E-1,9.828112335E0,1.038108578E1
1.501206913E1,-3.123255157E0,8.345146179E-1,9.921667786E0,1.043506728E1
1.502199213E1,-3.158282318E0,6.459068298E-1,1.004186783E1,1.054661331E1
1.503191413E1,-3.462300110E0,7.831713867E-1,9.692194977E0,1.032179844E1
1.504183713E1,-3.254831543E0,5.686674500E-1,9.789642334E0,1.033220248E1
1.505176013E1,-2.974913635E0,7.840695190E-1,1.017164795E1,1.062672566E1
1.506168313E1,-3.428021393E0,6.611750793E-1,9.860145721E0,1.045996925E1
1.507160613E1,-3.298241272E0,5.909710693E-1,9.828112335E0,1.038361374E1
1.508152913E1,-3.068469086E0,8.451425171E-1,1.007749374E1,1.056814310E1
1.509145213E1,-3.254382477E0,5.903723145E-1,9.946366425E0,1.048187721E1
1.510137513E1,-3.225642242E0,6.153703308E-1,9.929002533E0,1.045794147E1
1.511129713E1,-3.332969055E0,5.499563599E-1,9.698930969E0,1.027036497E1
1.512122013E1,-3.108885040E0,5.399272156E-1,1.000938538E1,1.049497419E1
1.513114313E1,-3.138373718E0,4.824467468E-1,1.015368530E1,1.063858401E1
1.514106613E1,-3.354524231E0,5.665718079E-1,9.624685364E0,1.020825180E1
1.515098913E1,-3.126398621E0,5.505551147E-1,9.974058838E0,1.046705923E1
1.516091213E1,-3.176394653E0,4.818479919E-1,1.010683273E1,1.060517460E1
1.517083513E1,-3.182382202E0,5.659730530E-1,9.711355133E0,1.023515024E1
1.518075813E1,-3.263962555E0,3.752696228E-1,9.820627899E0,1.035562703E1
1.519068013E1,-3.146007843E0,5.601351929E-1,1.003558090E1,1.053204637E1
1.520060313E1,-3.176993408E0,3.920347595E-1,9.804910583E0,1.031422561E1
1.521052613E1,-3.084785156E0,5.066963196E-1,9.892628174E0,1.037481242E1
1.522044913E1,-3.230132904E0,2.983296204E-1,9.867779846E0,1.038729215E1
1.523037213E1,-3.197500763E0,4.757107544E-1,9.829908600E0,1.034782175E1
1.524029513E1,-3.115471344E0,2.478845215E-1,9.890831909E0,1.037285709E1
1.525021813E1,-3.197500763E0,5.475613403E-1,9.798024902E0,1.032110103E1
1.526014112E1,-3.226540375E0,1.345701599E-1,9.867330780E0,1.038233541E1
1.527006313E1,-2.943628693E0,4.552033997E-1,9.921368408E0,1.035884700E1
1.527998613E1,-3.221301270E0,3.867956543E-1,9.760453033E0,1.028556446E1
1.528990938E1,-3.083138580E0,2.243833923E-1,9.874066772E0,1.034665579E1
1.529983237E1,-3.199147339E0,2.748284912E-1,9.712402954E0,1.022941081E1
1.530975538E1,-3.031346283E0,2.926414490E-1,9.823322296E0,1.028456904E1
1.531967838E1,-3.139421539E0,2.480342102E-1,9.962383118E0,1.044828053E1
1.532960138E1,-3.109184418E0,2.830613708E-1,9.754315796E0,1.024176880E1
1.533952438E1,-3.144960022E0,2.254312134E-1,9.820328522E0,1.031408964E1
1.534944738E1,-3.198698273E0,2.516267395E-1,9.872569885E0,1.038087775E1
1.535936938E1,-3.128344574E0,2.445913696E-1,9.756710815E0,1.024889119E1
1.536929238E1,-3.091521149E0,1.818717957E-1,9.906998291E0,1.037974930E1
1.537921538E1,-3.204985199E0,2.380050659E-1,9.851014709E0,1.036200113E1
1.538913838E1,-2.996618500E0,2.450404358E-1,9.796827393E0,1.024780924E1
1.539906138E1,-3.258424072E0,2.200424194E-1,9.766739960E0,1.029829867E1
1.540898438E1,-3.013683014E0,1.625619507E-1,9.817035370E0,1.027048661E1
1.541890738E1,-3.208278351E0,1.770817566E-1,9.803114319E0,1.031627153E1
1.542883037E1,-2.938988342E0,2.649490356E-1,9.806856537E0,1.024120528E1
1.543875238E1,-3.231629791E0,9.610015869E-2,9.725276184E0,1.024859323E1
1.544867538E1,-3.029100952E0,1.493893433E-1,9.926607513E0,1.037956196E1
1.545859838E1,-3.136727142E0,2.306703186E-1,9.773775330E0,1.026737309E1
1.546852138E1,-3.084934845E0,1.207987976E-1,9.736802216E0,1.021453537E1
1.547844438E1,-3.211272125E0,6.316864014E-2,9.841883698E0,1.035272590E1
1.548836738E1,-2.995570679E0,2.239343262E-1,9.942324829E0,1.038621265E1
1.549829038E1,-3.228336639E0,2.450404358E-1,9.774074707E0,1.029634589E1
1.550821338E1,-3.069367218E0,7.140151978E-2,9.873617706E0,1.033994390E1
1.551813538E1,-3.064277802E0,2.670446777E-1,9.808503113E0,1.027948659E1
1.552805838E1,-3.213068390E0,-3.487747192E-2,9.782606964E0,1.029681620E1
1.553798138E1,-3.046764221E0,2.703378296E-1,9.866133270E0,1.032939691E1
1.554790438E1,-3.061134338E0,8.532257080E-2,9.794432373E0,1.026200414E1
1.555782737E1,-3.112028503E0,8.262817383E-2,9.913584595E0,1.039089545E1
1.556775038E1,-3.069666595E0,2.314187622E-1,9.818831635E0,1.029008563E1
1.557767338E1,-3.216361542E0,-1.625619507E-1,9.733359375E0,1.025230182E1
1.558759638E1,-3.035238190E0,3.719764709E-1,9.918374634E0,1.037907475E1
1.559751838E1,-3.122057648E0,-7.200027466E-2,9.796228638E0,1.028195135E1
1.560744138E1,-3.082988892E0,3.116519165E-1,9.971065063E0,1.044145995E1
1.561736438E1,-3.080743561E0,-8.517288208E-2,9.927355957E0,1.039474057E1
1.562728738E1,-3.253184967E0,1.815724182E-1,9.736802216E0,1.026749718E1
1.563721038E1,-3.004701691E0,7.050338745E-2,9.978699188E0,1.042149895E1
1.564713338E1,-3.149899750E0,6.077362061E-2,9.871671753E0,1.036221333E1
1.565705638E1,-3.050207062E0,1.507365417E-1,9.737850037E0,1.020549891E1
1.566697938E1,-3.079845428E0,-1.420545959E-1,9.990524597E0,1.045543921E1
1.567690138E1,-3.227887573E0,1.727407837E-1,9.874515839E0,1.039014729E1
1.568682438E1,-2.997217255E0,2.499801636E-2,9.886640625E0,1.033100184E1
1.569674738E1,-3.214116211E0,-8.726852417E-2,9.969268799E0,1.047494531E1
1.570667038E1,-2.935395813E0,9.325607300E-2,9.845925293E0,1.027460414E1
1.571659338E1,-3.253035278E0,-9.624984741E-2,9.866282959E0,1.038917908E1
1.572651638E1,-2.941533051E0,2.439926147E-2,1.003617966E1,1.045839921E1
1.573643938E1,-3.287912750E0,-1.342707825E-1,9.753267975E0,1.029342679E1
1.574636238E1,-2.999013519E0,8.577163696E-2,9.944570160E0,1.038729582E1
1.575628438E1,-3.151097260E0,-2.315684509E-1,9.893077240E0,1.038537506E1
1.576620738E1,-3.056344299E0,9.954299927E-2,9.815538483E0,1.028085332E1
1.577613038E1,-3.068469086E0,-1.190025330E-1,9.889335022E0,1.035512488E1
1.578605338E1,-3.164569244E0,-5.224136353E-2,9.821975098E0,1.031932277E1
1.579597638E1,-2.899620209E0,-7.095245361E-2,9.935289459E0,1.035001489E1
1.580589938E1,-3.162772980E0,-1.658551025E-1,9.880204010E0,1.037540708E1
1.581582238E1,-3.101550293E0,-1.841171265E-2,9.824819183E0,1.030276784E1
1.582574538E1,-2.980452118E0,-1.809736633E-1,9.897418213E0,1.033802368E1
1.583566738E1,-3.020119629E0,2.694396973E-3,9.887538757E0,1.033849856E1
1.584559038E1,-3.137176208E0,-1.278341675E-1,9.776769104E0,1.026856515E1
1.585551338E1,-3.025658112E0,-4.984634399E-2,9.850715332E0,1.030503199E1
1.586543638E1,-3.122057648E0,-4.730163574E-2,9.868677979E0,1.035085921E1
1.587535938E1,-3.031046906E0,-7.364685059E-2,9.849817200E0,1.030589967E1
1.588528238E1,-3.022963715E0,-1.556762695E-1,9.884395294E0,1.033749559E1
1.589520538E1,-3.067570953E0,-5.104385376E-2,9.857601013E0,1.032399607E1
1.590512838E1,-3.054548035E0,-7.499404907E-2,9.827363892E0,1.029140267E1
1.591505038E1,-3.108585663E0,-6.900650024E-2,9.921069031E0,1.039690711E1
1.592497338E1,-3.047812042E0,1.212478638E-2,9.904752960E0,1.036308045E1
1.593489638E1,-3.085683289E0,-7.334747314E-2,9.947114868E0,1.041498514E1
1.594481938E1,-3.070564728E0,5.134323120E-2,9.935888214E0,1.039965761E1
1.595474238E1,-3.131637726E0,-3.772155762E-2,9.824519806E0,1.031163261E1
1.596466538E1,-3.003953247E0,9.011260986E-2,1.006237518E1,1.050158320E1
1.597458838E1,-3.094814301E0,4.355941772E-2,9.914183350E0,1.038608706E1
1.598451138E1,-3.049608307E0,1.209484863E-1,9.822424164E0,1.028565777E1
1.599443338E1,-3.085234222E0,5.224136353E-2,1.007779312E1,1.053960690E1
1.600435638E1,-3.096610565E0,3.772155762E-2,9.919572144E0,1.039174343E1
1.601427938E1,-2.959944763E0,1.996847534E-1,9.840985565E0,1.027843100E1
1.602420238E1,-3.127446442E0,1.916015625E-2,1.007464966E1,1.054892668E1
1.603412538E1,-2.983296204E0,2.555186462E-1,9.966424713E0,1.040648680E1
1.604404838E1,-3.067421265E0,-4.790039063E-2,9.793085175E0,1.026235280E1
1.605397138E1,-2.888543243E0,1.612147522E-1,1.005324417E1,1.046123275E1
1.606389438E1,-3.033591614E0,1.305285645E-1,9.893376617E0,1.034884615E1
1.607381638E1,-2.981799316E0,2.559677124E-2,9.826016693E0,1.026851432E1
1.608373938E1,-2.911445618E0,2.080673218E-1,9.977351990E0,1.039554522E1
1.609366238E1,-2.936443634E0,7.708969116E-2,9.819131012E0,1.024909644E1
1.610358537E1,-3.024310913E0,7.080276489E-2,9.896969147E0,1.034898390E1
1.611350838E1,-2.875520325E0,2.673440552E-1,9.978549500E0,1.038804794E1
1.612343138E1,-2.955603790E0,5.763015747E-2,9.863139496E0,1.029662254E1
1.613335438E1,-2.929108887E0,2.817141724E-1,1.005638763E1,1.047807110E1
1.614327738E1,-2.878514099E0,9.445358276E-2,9.913285217E0,1.032317726E1
1.615319938E1,-2.963088226E0,2.612068176E-1,9.826465759E0,1.026681792E1
1.616312238E1,-2.825673981E0,1.625619507E-1,1.001761826E1,1.040978075E1
1.617304538E1,-2.826123047E0,1.700463867E-1,9.848769379E0,1.024764097E1
1.618296838E1,-2.743494873E0,2.194436646E-1,9.836195526E0,1.021399344E1
1.619289138E1,-2.878364410E0,8.068222046E-2,9.826166382E0,1.023938656E1
1.620281438E1,-2.744692383E0,1.175056458E-1,9.720486145E0,1.010123729E1
1.621273738E1,-2.719694366E0,3.576063538E-1,9.785001984E0,1.016222828E1
1.622266038E1,-2.687361603E0,-3.397933960E-2,9.825268250E0,1.018621437E1
1.623258237E1,-2.804418182E0,2.781216431E-1,9.812245331E0,1.020893096E1
1.624250538E1,-2.646346893E0,2.318678284E-1,9.817783813E0,1.017083053E1
1.625242838E1,-2.762954407E0,3.013233948E-1,9.696086884E0,1.008656600E1
1.626235138E1,-2.562072144E0,2.186952209E-1,9.845925293E0,1.017616264E1
1.627227438E1,-2.734812927E0,2.493814087E-1,9.688303070E0,1.006998556E1
1.628219738E1,-2.525548096E0,2.740800476E-1,9.683513031E0,1.001119062E1
1.629212075E1,-2.790048065E0,4.558021545E-1,9.716594238E0,1.011950233E1
1.630204275E1,-2.436333618E0,1.010398865E-1,9.754016418E0,1.005419151E1
1.631196575E1,-2.704426117E0,2.896476746E-1,9.666298828E0,1.004167065E1
1.632188875E1,-2.542612610E0,3.159928894E-1,9.676477661E0,1.000994257E1
1.633181175E1,-2.658920746E0,4.135899353E-1,9.609117737E0,9.978780479E0
1.634173475E1,-2.516866150E0,1.392105103E-1,9.745035095E0,1.006576891E1
1.635165775E1,-2.553689575E0,3.245251465E-1,9.710307312E0,1.004573119E1
1.636158075E1,-2.642604675E0,3.384461975E-1,9.627978516E0,9.989788566E0
1.637150375E1,-2.434088287E0,1.721420288E-1,9.764644318E0,1.006492411E1
1.638142575E1,-2.596350861E0,5.340893555E-1,9.642648010E0,1.000034749E1
1.639134875E1,-2.560126190E0,2.049238586E-1,9.692344666E0,1.002685320E1
1.640127175E1,-2.567161560E0,2.894979858E-1,9.843230896E0,1.017660661E1
1.641119475E1,-2.655627594E0,2.330653381E-1,9.837243347E0,1.019205740E1
1.642111775E1,-2.744692383E0,5.370831299E-1,9.783654785E0,1.017554399E1
1.643104075E1,-2.652933197E0,3.381468201E-1,9.861642609E0,1.021784678E1
1.644096375E1,-2.650089111E0,3.559597778E-1,1.002630020E1,1.037672277E1
1.645088675E1,-2.788551178E0,3.558100891E-1,9.940528564E0,1.033037882E1
